# E (eV)   ldos(E)   pdos(E)   
 -21.645  0.182E-05  0.182E-05
 -21.635  0.287E-05  0.287E-05
 -21.625  0.449E-05  0.449E-05
 -21.615  0.695E-05  0.695E-05
 -21.605  0.107E-04  0.107E-04
 -21.595  0.162E-04  0.162E-04
 -21.585  0.243E-04  0.243E-04
 -21.575  0.361E-04  0.361E-04
 -21.565  0.531E-04  0.531E-04
 -21.555  0.773E-04  0.773E-04
 -21.545  0.111E-03  0.111E-03
 -21.535  0.159E-03  0.159E-03
 -21.525  0.225E-03  0.225E-03
 -21.515  0.314E-03  0.314E-03
 -21.505  0.435E-03  0.435E-03
 -21.495  0.597E-03  0.597E-03
 -21.485  0.810E-03  0.810E-03
 -21.475  0.109E-02  0.109E-02
 -21.465  0.145E-02  0.145E-02
 -21.455  0.191E-02  0.191E-02
 -21.445  0.249E-02  0.249E-02
 -21.435  0.322E-02  0.322E-02
 -21.425  0.413E-02  0.413E-02
 -21.415  0.523E-02  0.523E-02
 -21.405  0.657E-02  0.657E-02
 -21.395  0.818E-02  0.818E-02
 -21.385  0.101E-01  0.101E-01
 -21.375  0.123E-01  0.123E-01
 -21.365  0.149E-01  0.149E-01
 -21.355  0.179E-01  0.179E-01
 -21.345  0.212E-01  0.212E-01
 -21.335  0.250E-01  0.250E-01
 -21.325  0.292E-01  0.292E-01
 -21.315  0.338E-01  0.338E-01
 -21.305  0.389E-01  0.389E-01
 -21.295  0.443E-01  0.443E-01
 -21.285  0.500E-01  0.500E-01
 -21.275  0.560E-01  0.560E-01
 -21.265  0.623E-01  0.623E-01
 -21.255  0.687E-01  0.687E-01
 -21.245  0.753E-01  0.753E-01
 -21.235  0.819E-01  0.819E-01
 -21.225  0.885E-01  0.885E-01
 -21.215  0.949E-01  0.949E-01
 -21.205  0.101E+00  0.101E+00
 -21.195  0.107E+00  0.107E+00
 -21.185  0.113E+00  0.113E+00
 -21.175  0.118E+00  0.118E+00
 -21.165  0.123E+00  0.123E+00
 -21.155  0.128E+00  0.128E+00
 -21.145  0.132E+00  0.132E+00
 -21.135  0.136E+00  0.136E+00
 -21.125  0.139E+00  0.139E+00
 -21.115  0.142E+00  0.142E+00
 -21.105  0.144E+00  0.144E+00
 -21.095  0.146E+00  0.146E+00
 -21.085  0.148E+00  0.148E+00
 -21.075  0.149E+00  0.149E+00
 -21.065  0.151E+00  0.151E+00
 -21.055  0.151E+00  0.151E+00
 -21.045  0.152E+00  0.152E+00
 -21.035  0.152E+00  0.152E+00
 -21.025  0.153E+00  0.153E+00
 -21.015  0.153E+00  0.153E+00
 -21.005  0.153E+00  0.153E+00
 -20.995  0.153E+00  0.153E+00
 -20.985  0.152E+00  0.152E+00
 -20.975  0.152E+00  0.152E+00
 -20.965  0.152E+00  0.152E+00
 -20.955  0.152E+00  0.152E+00
 -20.945  0.151E+00  0.151E+00
 -20.935  0.151E+00  0.151E+00
 -20.925  0.150E+00  0.150E+00
 -20.915  0.150E+00  0.150E+00
 -20.905  0.150E+00  0.150E+00
 -20.895  0.149E+00  0.149E+00
 -20.885  0.149E+00  0.149E+00
 -20.875  0.149E+00  0.149E+00
 -20.865  0.148E+00  0.148E+00
 -20.855  0.148E+00  0.148E+00
 -20.845  0.148E+00  0.148E+00
 -20.835  0.147E+00  0.147E+00
 -20.825  0.147E+00  0.147E+00
 -20.815  0.146E+00  0.146E+00
 -20.805  0.146E+00  0.146E+00
 -20.795  0.146E+00  0.146E+00
 -20.785  0.145E+00  0.145E+00
 -20.775  0.145E+00  0.145E+00
 -20.765  0.145E+00  0.145E+00
 -20.755  0.144E+00  0.144E+00
 -20.745  0.144E+00  0.144E+00
 -20.735  0.143E+00  0.143E+00
 -20.725  0.143E+00  0.143E+00
 -20.715  0.143E+00  0.143E+00
 -20.705  0.142E+00  0.142E+00
 -20.695  0.142E+00  0.142E+00
 -20.685  0.142E+00  0.142E+00
 -20.675  0.142E+00  0.142E+00
 -20.665  0.142E+00  0.142E+00
 -20.655  0.141E+00  0.141E+00
 -20.645  0.141E+00  0.141E+00
 -20.635  0.141E+00  0.141E+00
 -20.625  0.140E+00  0.140E+00
 -20.615  0.140E+00  0.140E+00
 -20.605  0.140E+00  0.140E+00
 -20.595  0.139E+00  0.139E+00
 -20.585  0.139E+00  0.139E+00
 -20.575  0.139E+00  0.139E+00
 -20.565  0.138E+00  0.138E+00
 -20.555  0.138E+00  0.138E+00
 -20.545  0.137E+00  0.137E+00
 -20.535  0.137E+00  0.137E+00
 -20.525  0.137E+00  0.137E+00
 -20.515  0.136E+00  0.136E+00
 -20.505  0.136E+00  0.136E+00
 -20.495  0.136E+00  0.136E+00
 -20.485  0.136E+00  0.136E+00
 -20.475  0.136E+00  0.136E+00
 -20.465  0.136E+00  0.136E+00
 -20.455  0.136E+00  0.136E+00
 -20.445  0.136E+00  0.136E+00
 -20.435  0.136E+00  0.136E+00
 -20.425  0.136E+00  0.136E+00
 -20.415  0.135E+00  0.135E+00
 -20.405  0.135E+00  0.135E+00
 -20.395  0.134E+00  0.134E+00
 -20.385  0.134E+00  0.134E+00
 -20.375  0.133E+00  0.133E+00
 -20.365  0.133E+00  0.133E+00
 -20.355  0.132E+00  0.132E+00
 -20.345  0.131E+00  0.131E+00
 -20.335  0.131E+00  0.131E+00
 -20.325  0.131E+00  0.131E+00
 -20.315  0.130E+00  0.130E+00
 -20.305  0.130E+00  0.130E+00
 -20.295  0.130E+00  0.130E+00
 -20.285  0.131E+00  0.131E+00
 -20.275  0.131E+00  0.131E+00
 -20.265  0.131E+00  0.131E+00
 -20.255  0.132E+00  0.132E+00
 -20.245  0.132E+00  0.132E+00
 -20.235  0.132E+00  0.132E+00
 -20.225  0.132E+00  0.132E+00
 -20.215  0.132E+00  0.132E+00
 -20.205  0.132E+00  0.132E+00
 -20.195  0.132E+00  0.132E+00
 -20.185  0.131E+00  0.131E+00
 -20.175  0.130E+00  0.130E+00
 -20.165  0.130E+00  0.130E+00
 -20.155  0.129E+00  0.129E+00
 -20.145  0.128E+00  0.128E+00
 -20.135  0.127E+00  0.127E+00
 -20.125  0.126E+00  0.126E+00
 -20.115  0.125E+00  0.125E+00
 -20.105  0.125E+00  0.125E+00
 -20.095  0.124E+00  0.124E+00
 -20.085  0.124E+00  0.124E+00
 -20.075  0.124E+00  0.124E+00
 -20.065  0.125E+00  0.125E+00
 -20.055  0.125E+00  0.125E+00
 -20.045  0.126E+00  0.126E+00
 -20.035  0.126E+00  0.126E+00
 -20.025  0.127E+00  0.127E+00
 -20.015  0.128E+00  0.128E+00
 -20.005  0.128E+00  0.128E+00
 -19.995  0.129E+00  0.129E+00
 -19.985  0.129E+00  0.129E+00
 -19.975  0.129E+00  0.129E+00
 -19.965  0.129E+00  0.129E+00
 -19.955  0.129E+00  0.129E+00
 -19.945  0.128E+00  0.128E+00
 -19.935  0.127E+00  0.127E+00
 -19.925  0.126E+00  0.126E+00
 -19.915  0.125E+00  0.125E+00
 -19.905  0.124E+00  0.124E+00
 -19.895  0.122E+00  0.122E+00
 -19.885  0.121E+00  0.121E+00
 -19.875  0.120E+00  0.120E+00
 -19.865  0.119E+00  0.119E+00
 -19.855  0.119E+00  0.119E+00
 -19.845  0.118E+00  0.118E+00
 -19.835  0.118E+00  0.118E+00
 -19.825  0.118E+00  0.118E+00
 -19.815  0.119E+00  0.119E+00
 -19.805  0.119E+00  0.119E+00
 -19.795  0.120E+00  0.120E+00
 -19.785  0.121E+00  0.121E+00
 -19.775  0.122E+00  0.122E+00
 -19.765  0.124E+00  0.124E+00
 -19.755  0.125E+00  0.125E+00
 -19.745  0.125E+00  0.125E+00
 -19.735  0.126E+00  0.126E+00
 -19.725  0.127E+00  0.127E+00
 -19.715  0.127E+00  0.127E+00
 -19.705  0.127E+00  0.127E+00
 -19.695  0.126E+00  0.126E+00
 -19.685  0.126E+00  0.126E+00
 -19.675  0.125E+00  0.125E+00
 -19.665  0.124E+00  0.124E+00
 -19.655  0.122E+00  0.122E+00
 -19.645  0.121E+00  0.121E+00
 -19.635  0.119E+00  0.119E+00
 -19.625  0.118E+00  0.118E+00
 -19.615  0.116E+00  0.116E+00
 -19.605  0.115E+00  0.115E+00
 -19.595  0.114E+00  0.114E+00
 -19.585  0.113E+00  0.113E+00
 -19.575  0.113E+00  0.113E+00
 -19.565  0.112E+00  0.112E+00
 -19.555  0.113E+00  0.113E+00
 -19.545  0.113E+00  0.113E+00
 -19.535  0.114E+00  0.114E+00
 -19.525  0.115E+00  0.115E+00
 -19.515  0.116E+00  0.116E+00
 -19.505  0.117E+00  0.117E+00
 -19.495  0.119E+00  0.119E+00
 -19.485  0.120E+00  0.120E+00
 -19.475  0.122E+00  0.122E+00
 -19.465  0.123E+00  0.123E+00
 -19.455  0.124E+00  0.124E+00
 -19.445  0.125E+00  0.125E+00
 -19.435  0.125E+00  0.125E+00
 -19.425  0.125E+00  0.125E+00
 -19.415  0.125E+00  0.125E+00
 -19.405  0.124E+00  0.124E+00
 -19.395  0.123E+00  0.123E+00
 -19.385  0.122E+00  0.122E+00
 -19.375  0.121E+00  0.121E+00
 -19.365  0.119E+00  0.119E+00
 -19.355  0.117E+00  0.117E+00
 -19.345  0.115E+00  0.115E+00
 -19.335  0.113E+00  0.113E+00
 -19.325  0.112E+00  0.112E+00
 -19.315  0.110E+00  0.110E+00
 -19.305  0.109E+00  0.109E+00
 -19.295  0.108E+00  0.108E+00
 -19.285  0.107E+00  0.107E+00
 -19.275  0.107E+00  0.107E+00
 -19.265  0.107E+00  0.107E+00
 -19.255  0.108E+00  0.108E+00
 -19.245  0.108E+00  0.108E+00
 -19.235  0.110E+00  0.110E+00
 -19.225  0.111E+00  0.111E+00
 -19.215  0.112E+00  0.112E+00
 -19.205  0.114E+00  0.114E+00
 -19.195  0.116E+00  0.116E+00
 -19.185  0.117E+00  0.117E+00
 -19.175  0.119E+00  0.119E+00
 -19.165  0.120E+00  0.120E+00
 -19.155  0.122E+00  0.122E+00
 -19.145  0.123E+00  0.123E+00
 -19.135  0.123E+00  0.123E+00
 -19.125  0.124E+00  0.124E+00
 -19.115  0.124E+00  0.124E+00
 -19.105  0.123E+00  0.123E+00
 -19.095  0.123E+00  0.123E+00
 -19.085  0.122E+00  0.122E+00
 -19.075  0.120E+00  0.120E+00
 -19.065  0.118E+00  0.118E+00
 -19.055  0.117E+00  0.117E+00
 -19.045  0.115E+00  0.115E+00
 -19.035  0.113E+00  0.113E+00
 -19.025  0.111E+00  0.111E+00
 -19.015  0.109E+00  0.109E+00
 -19.005  0.107E+00  0.107E+00
 -18.995  0.105E+00  0.105E+00
 -18.985  0.104E+00  0.104E+00
 -18.975  0.103E+00  0.103E+00
 -18.965  0.102E+00  0.102E+00
 -18.955  0.102E+00  0.102E+00
 -18.945  0.102E+00  0.102E+00
 -18.935  0.103E+00  0.103E+00
 -18.925  0.104E+00  0.104E+00
 -18.915  0.105E+00  0.105E+00
 -18.905  0.107E+00  0.107E+00
 -18.895  0.109E+00  0.109E+00
 -18.885  0.111E+00  0.111E+00
 -18.875  0.113E+00  0.113E+00
 -18.865  0.115E+00  0.115E+00
 -18.855  0.117E+00  0.117E+00
 -18.845  0.119E+00  0.119E+00
 -18.835  0.120E+00  0.120E+00
 -18.825  0.121E+00  0.121E+00
 -18.815  0.122E+00  0.122E+00
 -18.805  0.123E+00  0.123E+00
 -18.795  0.123E+00  0.123E+00
 -18.785  0.123E+00  0.123E+00
 -18.775  0.122E+00  0.122E+00
 -18.765  0.121E+00  0.121E+00
 -18.755  0.120E+00  0.120E+00
 -18.745  0.118E+00  0.118E+00
 -18.735  0.116E+00  0.116E+00
 -18.725  0.115E+00  0.115E+00
 -18.715  0.113E+00  0.113E+00
 -18.705  0.110E+00  0.110E+00
 -18.695  0.108E+00  0.108E+00
 -18.685  0.106E+00  0.106E+00
 -18.675  0.105E+00  0.105E+00
 -18.665  0.103E+00  0.103E+00
 -18.655  0.101E+00  0.101E+00
 -18.645  0.100E+00  0.100E+00
 -18.635  0.993E-01  0.993E-01
 -18.625  0.987E-01  0.987E-01
 -18.615  0.986E-01  0.986E-01
 -18.605  0.988E-01  0.988E-01
 -18.595  0.994E-01  0.994E-01
 -18.585  0.100E+00  0.100E+00
 -18.575  0.102E+00  0.102E+00
 -18.565  0.103E+00  0.103E+00
 -18.555  0.105E+00  0.105E+00
 -18.545  0.108E+00  0.108E+00
 -18.535  0.110E+00  0.110E+00
 -18.525  0.112E+00  0.112E+00
 -18.515  0.114E+00  0.114E+00
 -18.505  0.117E+00  0.117E+00
 -18.495  0.119E+00  0.119E+00
 -18.485  0.120E+00  0.120E+00
 -18.475  0.122E+00  0.122E+00
 -18.465  0.122E+00  0.122E+00
 -18.455  0.123E+00  0.123E+00
 -18.445  0.123E+00  0.123E+00
 -18.435  0.123E+00  0.123E+00
 -18.425  0.122E+00  0.122E+00
 -18.415  0.121E+00  0.121E+00
 -18.405  0.119E+00  0.119E+00
 -18.395  0.117E+00  0.117E+00
 -18.385  0.115E+00  0.115E+00
 -18.375  0.113E+00  0.113E+00
 -18.365  0.111E+00  0.111E+00
 -18.355  0.108E+00  0.108E+00
 -18.345  0.106E+00  0.106E+00
 -18.335  0.104E+00  0.104E+00
 -18.325  0.102E+00  0.102E+00
 -18.315  0.101E+00  0.101E+00
 -18.305  0.992E-01  0.992E-01
 -18.295  0.981E-01  0.981E-01
 -18.285  0.972E-01  0.972E-01
 -18.275  0.967E-01  0.967E-01
 -18.265  0.965E-01  0.965E-01
 -18.255  0.966E-01  0.966E-01
 -18.245  0.970E-01  0.970E-01
 -18.235  0.978E-01  0.978E-01
 -18.225  0.989E-01  0.989E-01
 -18.215  0.100E+00  0.100E+00
 -18.205  0.102E+00  0.102E+00
 -18.195  0.104E+00  0.104E+00
 -18.185  0.106E+00  0.106E+00
 -18.175  0.108E+00  0.108E+00
 -18.165  0.110E+00  0.110E+00
 -18.155  0.112E+00  0.112E+00
 -18.145  0.115E+00  0.115E+00
 -18.135  0.117E+00  0.117E+00
 -18.125  0.119E+00  0.119E+00
 -18.115  0.120E+00  0.120E+00
 -18.105  0.122E+00  0.122E+00
 -18.095  0.123E+00  0.123E+00
 -18.085  0.123E+00  0.123E+00
 -18.075  0.123E+00  0.123E+00
 -18.065  0.123E+00  0.123E+00
 -18.055  0.122E+00  0.122E+00
 -18.045  0.121E+00  0.121E+00
 -18.035  0.120E+00  0.120E+00
 -18.025  0.118E+00  0.118E+00
 -18.015  0.116E+00  0.116E+00
 -18.005  0.113E+00  0.113E+00
 -17.995  0.111E+00  0.111E+00
 -17.985  0.108E+00  0.108E+00
 -17.975  0.106E+00  0.106E+00
 -17.965  0.103E+00  0.103E+00
 -17.955  0.101E+00  0.101E+00
 -17.945  0.992E-01  0.992E-01
 -17.935  0.975E-01  0.975E-01
 -17.925  0.961E-01  0.961E-01
 -17.915  0.951E-01  0.951E-01
 -17.905  0.945E-01  0.945E-01
 -17.895  0.943E-01  0.943E-01
 -17.885  0.944E-01  0.944E-01
 -17.875  0.950E-01  0.950E-01
 -17.865  0.959E-01  0.959E-01
 -17.855  0.971E-01  0.971E-01
 -17.845  0.987E-01  0.987E-01
 -17.835  0.100E+00  0.100E+00
 -17.825  0.102E+00  0.102E+00
 -17.815  0.105E+00  0.105E+00
 -17.805  0.107E+00  0.107E+00
 -17.795  0.109E+00  0.109E+00
 -17.785  0.111E+00  0.111E+00
 -17.775  0.114E+00  0.114E+00
 -17.765  0.116E+00  0.116E+00
 -17.755  0.118E+00  0.118E+00
 -17.745  0.119E+00  0.119E+00
 -17.735  0.121E+00  0.121E+00
 -17.725  0.122E+00  0.122E+00
 -17.715  0.123E+00  0.123E+00
 -17.705  0.124E+00  0.124E+00
 -17.695  0.124E+00  0.124E+00
 -17.685  0.124E+00  0.124E+00
 -17.675  0.123E+00  0.123E+00
 -17.665  0.123E+00  0.123E+00
 -17.655  0.122E+00  0.122E+00
 -17.645  0.120E+00  0.120E+00
 -17.635  0.118E+00  0.118E+00
 -17.625  0.117E+00  0.117E+00
 -17.615  0.114E+00  0.114E+00
 -17.605  0.112E+00  0.112E+00
 -17.595  0.110E+00  0.110E+00
 -17.585  0.107E+00  0.107E+00
 -17.575  0.105E+00  0.105E+00
 -17.565  0.103E+00  0.103E+00
 -17.555  0.101E+00  0.101E+00
 -17.545  0.988E-01  0.988E-01
 -17.535  0.972E-01  0.972E-01
 -17.525  0.959E-01  0.959E-01
 -17.515  0.950E-01  0.950E-01
 -17.505  0.946E-01  0.946E-01
 -17.495  0.945E-01  0.945E-01
 -17.485  0.949E-01  0.949E-01
 -17.475  0.957E-01  0.957E-01
 -17.465  0.970E-01  0.970E-01
 -17.455  0.986E-01  0.986E-01
 -17.445  0.101E+00  0.101E+00
 -17.435  0.103E+00  0.103E+00
 -17.425  0.105E+00  0.105E+00
 -17.415  0.108E+00  0.108E+00
 -17.405  0.111E+00  0.111E+00
 -17.395  0.114E+00  0.114E+00
 -17.385  0.116E+00  0.116E+00
 -17.375  0.119E+00  0.119E+00
 -17.365  0.121E+00  0.121E+00
 -17.355  0.123E+00  0.123E+00
 -17.345  0.125E+00  0.125E+00
 -17.335  0.127E+00  0.127E+00
 -17.325  0.128E+00  0.128E+00
 -17.315  0.129E+00  0.129E+00
 -17.305  0.129E+00  0.129E+00
 -17.295  0.129E+00  0.129E+00
 -17.285  0.129E+00  0.129E+00
 -17.275  0.128E+00  0.128E+00
 -17.265  0.127E+00  0.127E+00
 -17.255  0.126E+00  0.126E+00
 -17.245  0.125E+00  0.125E+00
 -17.235  0.123E+00  0.123E+00
 -17.225  0.121E+00  0.121E+00
 -17.215  0.119E+00  0.119E+00
 -17.205  0.117E+00  0.117E+00
 -17.195  0.115E+00  0.115E+00
 -17.185  0.113E+00  0.113E+00
 -17.175  0.111E+00  0.111E+00
 -17.165  0.109E+00  0.109E+00
 -17.155  0.108E+00  0.108E+00
 -17.145  0.106E+00  0.106E+00
 -17.135  0.104E+00  0.104E+00
 -17.125  0.103E+00  0.103E+00
 -17.115  0.102E+00  0.102E+00
 -17.105  0.102E+00  0.102E+00
 -17.095  0.102E+00  0.102E+00
 -17.085  0.102E+00  0.102E+00
 -17.075  0.103E+00  0.103E+00
 -17.065  0.104E+00  0.104E+00
 -17.055  0.105E+00  0.105E+00
 -17.045  0.107E+00  0.107E+00
 -17.035  0.110E+00  0.110E+00
 -17.025  0.112E+00  0.112E+00
 -17.015  0.115E+00  0.115E+00
 -17.005  0.118E+00  0.118E+00
 -16.995  0.122E+00  0.122E+00
 -16.985  0.125E+00  0.125E+00
 -16.975  0.128E+00  0.128E+00
 -16.965  0.132E+00  0.132E+00
 -16.955  0.135E+00  0.135E+00
 -16.945  0.138E+00  0.138E+00
 -16.935  0.140E+00  0.140E+00
 -16.925  0.143E+00  0.143E+00
 -16.915  0.145E+00  0.145E+00
 -16.905  0.146E+00  0.146E+00
 -16.895  0.148E+00  0.148E+00
 -16.885  0.149E+00  0.149E+00
 -16.875  0.149E+00  0.149E+00
 -16.865  0.150E+00  0.150E+00
 -16.855  0.150E+00  0.150E+00
 -16.845  0.149E+00  0.149E+00
 -16.835  0.149E+00  0.149E+00
 -16.825  0.148E+00  0.148E+00
 -16.815  0.148E+00  0.148E+00
 -16.805  0.147E+00  0.147E+00
 -16.795  0.146E+00  0.146E+00
 -16.785  0.145E+00  0.145E+00
 -16.775  0.145E+00  0.145E+00
 -16.765  0.144E+00  0.144E+00
 -16.755  0.144E+00  0.144E+00
 -16.745  0.143E+00  0.143E+00
 -16.735  0.143E+00  0.143E+00
 -16.725  0.143E+00  0.143E+00
 -16.715  0.143E+00  0.143E+00
 -16.705  0.143E+00  0.143E+00
 -16.695  0.144E+00  0.144E+00
 -16.685  0.144E+00  0.144E+00
 -16.675  0.145E+00  0.145E+00
 -16.665  0.146E+00  0.146E+00
 -16.655  0.147E+00  0.147E+00
 -16.645  0.148E+00  0.148E+00
 -16.635  0.149E+00  0.149E+00
 -16.625  0.150E+00  0.150E+00
 -16.615  0.151E+00  0.151E+00
 -16.605  0.152E+00  0.152E+00
 -16.595  0.153E+00  0.153E+00
 -16.585  0.154E+00  0.154E+00
 -16.575  0.155E+00  0.155E+00
 -16.565  0.155E+00  0.155E+00
 -16.555  0.156E+00  0.156E+00
 -16.545  0.157E+00  0.157E+00
 -16.535  0.157E+00  0.157E+00
 -16.525  0.157E+00  0.157E+00
 -16.515  0.156E+00  0.156E+00
 -16.505  0.156E+00  0.156E+00
 -16.495  0.154E+00  0.154E+00
 -16.485  0.153E+00  0.153E+00
 -16.475  0.150E+00  0.150E+00
 -16.465  0.147E+00  0.147E+00
 -16.455  0.144E+00  0.144E+00
 -16.445  0.140E+00  0.140E+00
 -16.435  0.136E+00  0.136E+00
 -16.425  0.131E+00  0.131E+00
 -16.415  0.125E+00  0.125E+00
 -16.405  0.119E+00  0.119E+00
 -16.395  0.113E+00  0.113E+00
 -16.385  0.107E+00  0.107E+00
 -16.375  0.100E+00  0.100E+00
 -16.365  0.941E-01  0.941E-01
 -16.355  0.881E-01  0.881E-01
 -16.345  0.823E-01  0.823E-01
 -16.335  0.770E-01  0.770E-01
 -16.325  0.722E-01  0.722E-01
 -16.315  0.681E-01  0.681E-01
 -16.305  0.647E-01  0.647E-01
 -16.295  0.621E-01  0.621E-01
 -16.285  0.603E-01  0.603E-01
 -16.275  0.594E-01  0.594E-01
 -16.265  0.592E-01  0.592E-01
 -16.255  0.599E-01  0.599E-01
 -16.245  0.613E-01  0.613E-01
 -16.235  0.633E-01  0.633E-01
 -16.225  0.659E-01  0.659E-01
 -16.215  0.689E-01  0.689E-01
 -16.205  0.722E-01  0.722E-01
 -16.195  0.756E-01  0.756E-01
 -16.185  0.791E-01  0.791E-01
 -16.175  0.824E-01  0.824E-01
 -16.165  0.854E-01  0.854E-01
 -16.155  0.880E-01  0.880E-01
 -16.145  0.901E-01  0.901E-01
 -16.135  0.915E-01  0.915E-01
 -16.125  0.922E-01  0.922E-01
 -16.115  0.922E-01  0.922E-01
 -16.105  0.915E-01  0.915E-01
 -16.095  0.900E-01  0.900E-01
 -16.085  0.877E-01  0.877E-01
 -16.075  0.848E-01  0.848E-01
 -16.065  0.814E-01  0.814E-01
 -16.055  0.775E-01  0.775E-01
 -16.045  0.733E-01  0.733E-01
 -16.035  0.689E-01  0.689E-01
 -16.025  0.643E-01  0.643E-01
 -16.015  0.598E-01  0.598E-01
 -16.005  0.554E-01  0.554E-01
 -15.995  0.513E-01  0.513E-01
 -15.985  0.475E-01  0.475E-01
 -15.975  0.441E-01  0.441E-01
 -15.965  0.411E-01  0.411E-01
 -15.955  0.386E-01  0.386E-01
 -15.945  0.366E-01  0.366E-01
 -15.935  0.351E-01  0.351E-01
 -15.925  0.340E-01  0.340E-01
 -15.915  0.335E-01  0.335E-01
 -15.905  0.334E-01  0.334E-01
 -15.895  0.338E-01  0.338E-01
 -15.885  0.345E-01  0.345E-01
 -15.875  0.355E-01  0.355E-01
 -15.865  0.368E-01  0.368E-01
 -15.855  0.383E-01  0.383E-01
 -15.845  0.400E-01  0.400E-01
 -15.835  0.418E-01  0.418E-01
 -15.825  0.436E-01  0.436E-01
 -15.815  0.453E-01  0.453E-01
 -15.805  0.470E-01  0.470E-01
 -15.795  0.485E-01  0.485E-01
 -15.785  0.498E-01  0.498E-01
 -15.775  0.508E-01  0.508E-01
 -15.765  0.515E-01  0.515E-01
 -15.755  0.518E-01  0.518E-01
 -15.745  0.518E-01  0.518E-01
 -15.735  0.515E-01  0.515E-01
 -15.725  0.507E-01  0.507E-01
 -15.715  0.496E-01  0.496E-01
 -15.705  0.482E-01  0.482E-01
 -15.695  0.465E-01  0.465E-01
 -15.685  0.446E-01  0.446E-01
 -15.675  0.424E-01  0.424E-01
 -15.665  0.402E-01  0.402E-01
 -15.655  0.378E-01  0.378E-01
 -15.645  0.355E-01  0.355E-01
 -15.635  0.332E-01  0.332E-01
 -15.625  0.310E-01  0.310E-01
 -15.615  0.289E-01  0.289E-01
 -15.605  0.270E-01  0.270E-01
 -15.595  0.254E-01  0.254E-01
 -15.585  0.239E-01  0.239E-01
 -15.575  0.226E-01  0.226E-01
 -15.565  0.216E-01  0.216E-01
 -15.555  0.208E-01  0.208E-01
 -15.545  0.202E-01  0.202E-01
 -15.535  0.198E-01  0.198E-01
 -15.525  0.196E-01  0.196E-01
 -15.515  0.195E-01  0.195E-01
 -15.505  0.196E-01  0.196E-01
 -15.495  0.198E-01  0.198E-01
 -15.485  0.201E-01  0.201E-01
 -15.475  0.206E-01  0.206E-01
 -15.465  0.210E-01  0.210E-01
 -15.455  0.215E-01  0.215E-01
 -15.445  0.221E-01  0.221E-01
 -15.435  0.226E-01  0.226E-01
 -15.425  0.232E-01  0.232E-01
 -15.415  0.237E-01  0.237E-01
 -15.405  0.242E-01  0.242E-01
 -15.395  0.246E-01  0.246E-01
 -15.385  0.249E-01  0.249E-01
 -15.375  0.252E-01  0.252E-01
 -15.365  0.254E-01  0.254E-01
 -15.355  0.255E-01  0.255E-01
 -15.345  0.256E-01  0.256E-01
 -15.335  0.256E-01  0.256E-01
 -15.325  0.256E-01  0.256E-01
 -15.315  0.255E-01  0.255E-01
 -15.305  0.255E-01  0.255E-01
 -15.295  0.255E-01  0.255E-01
 -15.285  0.255E-01  0.255E-01
 -15.275  0.257E-01  0.257E-01
 -15.265  0.259E-01  0.259E-01
 -15.255  0.263E-01  0.263E-01
 -15.245  0.267E-01  0.267E-01
 -15.235  0.274E-01  0.274E-01
 -15.225  0.282E-01  0.282E-01
 -15.215  0.291E-01  0.291E-01
 -15.205  0.302E-01  0.302E-01
 -15.195  0.314E-01  0.314E-01
 -15.185  0.327E-01  0.327E-01
 -15.175  0.341E-01  0.341E-01
 -15.165  0.357E-01  0.357E-01
 -15.155  0.372E-01  0.372E-01
 -15.145  0.388E-01  0.388E-01
 -15.135  0.404E-01  0.404E-01
 -15.125  0.420E-01  0.420E-01
 -15.115  0.437E-01  0.437E-01
 -15.105  0.452E-01  0.452E-01
 -15.095  0.467E-01  0.467E-01
 -15.085  0.482E-01  0.482E-01
 -15.075  0.496E-01  0.496E-01
 -15.065  0.509E-01  0.509E-01
 -15.055  0.522E-01  0.522E-01
 -15.045  0.533E-01  0.533E-01
 -15.035  0.544E-01  0.544E-01
 -15.025  0.554E-01  0.554E-01
 -15.015  0.563E-01  0.563E-01
 -15.005  0.571E-01  0.571E-01
 -14.995  0.579E-01  0.579E-01
 -14.985  0.586E-01  0.586E-01
 -14.975  0.593E-01  0.593E-01
 -14.965  0.600E-01  0.600E-01
 -14.955  0.608E-01  0.608E-01
 -14.945  0.616E-01  0.616E-01
 -14.935  0.625E-01  0.625E-01
 -14.925  0.635E-01  0.635E-01
 -14.915  0.646E-01  0.646E-01
 -14.905  0.660E-01  0.660E-01
 -14.895  0.675E-01  0.675E-01
 -14.885  0.693E-01  0.693E-01
 -14.875  0.713E-01  0.713E-01
 -14.865  0.735E-01  0.735E-01
 -14.855  0.759E-01  0.759E-01
 -14.845  0.784E-01  0.784E-01
 -14.835  0.811E-01  0.811E-01
 -14.825  0.839E-01  0.839E-01
 -14.815  0.867E-01  0.867E-01
 -14.805  0.895E-01  0.895E-01
 -14.795  0.922E-01  0.922E-01
 -14.785  0.947E-01  0.947E-01
 -14.775  0.970E-01  0.970E-01
 -14.765  0.990E-01  0.990E-01
 -14.755  0.101E+00  0.101E+00
 -14.745  0.102E+00  0.102E+00
 -14.735  0.103E+00  0.103E+00
 -14.725  0.104E+00  0.104E+00
 -14.715  0.104E+00  0.104E+00
 -14.705  0.104E+00  0.104E+00
 -14.695  0.103E+00  0.103E+00
 -14.685  0.103E+00  0.103E+00
 -14.675  0.102E+00  0.102E+00
 -14.665  0.101E+00  0.101E+00
 -14.655  0.101E+00  0.101E+00
 -14.645  0.997E-01  0.997E-01
 -14.635  0.989E-01  0.989E-01
 -14.625  0.981E-01  0.981E-01
 -14.615  0.975E-01  0.975E-01
 -14.605  0.969E-01  0.969E-01
 -14.595  0.965E-01  0.965E-01
 -14.585  0.961E-01  0.961E-01
 -14.575  0.958E-01  0.958E-01
 -14.565  0.955E-01  0.955E-01
 -14.555  0.952E-01  0.952E-01
 -14.545  0.948E-01  0.948E-01
 -14.535  0.944E-01  0.944E-01
 -14.525  0.939E-01  0.939E-01
 -14.515  0.932E-01  0.932E-01
 -14.505  0.924E-01  0.924E-01
 -14.495  0.914E-01  0.914E-01
 -14.485  0.903E-01  0.903E-01
 -14.475  0.890E-01  0.890E-01
 -14.465  0.876E-01  0.876E-01
 -14.455  0.861E-01  0.861E-01
 -14.445  0.845E-01  0.845E-01
 -14.435  0.829E-01  0.829E-01
 -14.425  0.813E-01  0.813E-01
 -14.415  0.798E-01  0.798E-01
 -14.405  0.783E-01  0.783E-01
 -14.395  0.770E-01  0.770E-01
 -14.385  0.758E-01  0.758E-01
 -14.375  0.747E-01  0.747E-01
 -14.365  0.739E-01  0.739E-01
 -14.355  0.732E-01  0.732E-01
 -14.345  0.728E-01  0.728E-01
 -14.335  0.725E-01  0.725E-01
 -14.325  0.724E-01  0.724E-01
 -14.315  0.725E-01  0.725E-01
 -14.305  0.726E-01  0.726E-01
 -14.295  0.729E-01  0.729E-01
 -14.285  0.733E-01  0.733E-01
 -14.275  0.737E-01  0.737E-01
 -14.265  0.741E-01  0.741E-01
 -14.255  0.745E-01  0.745E-01
 -14.245  0.749E-01  0.749E-01
 -14.235  0.752E-01  0.752E-01
 -14.225  0.753E-01  0.753E-01
 -14.215  0.753E-01  0.753E-01
 -14.205  0.752E-01  0.752E-01
 -14.195  0.749E-01  0.749E-01
 -14.185  0.745E-01  0.745E-01
 -14.175  0.739E-01  0.739E-01
 -14.165  0.731E-01  0.731E-01
 -14.155  0.722E-01  0.722E-01
 -14.145  0.712E-01  0.712E-01
 -14.135  0.701E-01  0.701E-01
 -14.125  0.689E-01  0.689E-01
 -14.115  0.677E-01  0.677E-01
 -14.105  0.665E-01  0.665E-01
 -14.095  0.654E-01  0.654E-01
 -14.085  0.644E-01  0.644E-01
 -14.075  0.635E-01  0.635E-01
 -14.065  0.628E-01  0.628E-01
 -14.055  0.623E-01  0.623E-01
 -14.045  0.619E-01  0.619E-01
 -14.035  0.618E-01  0.618E-01
 -14.025  0.618E-01  0.618E-01
 -14.015  0.621E-01  0.621E-01
 -14.005  0.625E-01  0.625E-01
 -13.995  0.630E-01  0.630E-01
 -13.985  0.636E-01  0.636E-01
 -13.975  0.643E-01  0.643E-01
 -13.965  0.649E-01  0.649E-01
 -13.955  0.655E-01  0.655E-01
 -13.945  0.660E-01  0.660E-01
 -13.935  0.664E-01  0.664E-01
 -13.925  0.666E-01  0.666E-01
 -13.915  0.667E-01  0.667E-01
 -13.905  0.665E-01  0.665E-01
 -13.895  0.662E-01  0.662E-01
 -13.885  0.657E-01  0.657E-01
 -13.875  0.651E-01  0.651E-01
 -13.865  0.643E-01  0.643E-01
 -13.855  0.634E-01  0.634E-01
 -13.845  0.625E-01  0.625E-01
 -13.835  0.616E-01  0.616E-01
 -13.825  0.607E-01  0.607E-01
 -13.815  0.599E-01  0.599E-01
 -13.805  0.592E-01  0.592E-01
 -13.795  0.585E-01  0.585E-01
 -13.785  0.580E-01  0.580E-01
 -13.775  0.577E-01  0.577E-01
 -13.765  0.574E-01  0.574E-01
 -13.755  0.573E-01  0.573E-01
 -13.745  0.573E-01  0.573E-01
 -13.735  0.574E-01  0.574E-01
 -13.725  0.575E-01  0.575E-01
 -13.715  0.577E-01  0.577E-01
 -13.705  0.579E-01  0.579E-01
 -13.695  0.580E-01  0.580E-01
 -13.685  0.581E-01  0.581E-01
 -13.675  0.581E-01  0.581E-01
 -13.665  0.581E-01  0.581E-01
 -13.655  0.579E-01  0.579E-01
 -13.645  0.577E-01  0.577E-01
 -13.635  0.574E-01  0.574E-01
 -13.625  0.570E-01  0.570E-01
 -13.615  0.566E-01  0.566E-01
 -13.605  0.562E-01  0.562E-01
 -13.595  0.558E-01  0.558E-01
 -13.585  0.554E-01  0.554E-01
 -13.575  0.550E-01  0.550E-01
 -13.565  0.547E-01  0.547E-01
 -13.555  0.545E-01  0.545E-01
 -13.545  0.544E-01  0.544E-01
 -13.535  0.544E-01  0.544E-01
 -13.525  0.544E-01  0.544E-01
 -13.515  0.546E-01  0.546E-01
 -13.505  0.547E-01  0.547E-01
 -13.495  0.549E-01  0.549E-01
 -13.485  0.551E-01  0.551E-01
 -13.475  0.553E-01  0.553E-01
 -13.465  0.555E-01  0.555E-01
 -13.455  0.556E-01  0.556E-01
 -13.445  0.557E-01  0.557E-01
 -13.435  0.556E-01  0.556E-01
 -13.425  0.554E-01  0.554E-01
 -13.415  0.552E-01  0.552E-01
 -13.405  0.548E-01  0.548E-01
 -13.395  0.544E-01  0.544E-01
 -13.385  0.538E-01  0.538E-01
 -13.375  0.532E-01  0.532E-01
 -13.365  0.526E-01  0.526E-01
 -13.355  0.519E-01  0.519E-01
 -13.345  0.512E-01  0.512E-01
 -13.335  0.505E-01  0.505E-01
 -13.325  0.498E-01  0.498E-01
 -13.315  0.492E-01  0.492E-01
 -13.305  0.487E-01  0.487E-01
 -13.295  0.483E-01  0.483E-01
 -13.285  0.479E-01  0.479E-01
 -13.275  0.477E-01  0.477E-01
 -13.265  0.475E-01  0.475E-01
 -13.255  0.475E-01  0.475E-01
 -13.245  0.475E-01  0.475E-01
 -13.235  0.476E-01  0.476E-01
 -13.225  0.478E-01  0.478E-01
 -13.215  0.480E-01  0.480E-01
 -13.205  0.483E-01  0.483E-01
 -13.195  0.486E-01  0.486E-01
 -13.185  0.489E-01  0.489E-01
 -13.175  0.491E-01  0.491E-01
 -13.165  0.494E-01  0.494E-01
 -13.155  0.497E-01  0.497E-01
 -13.145  0.499E-01  0.499E-01
 -13.135  0.501E-01  0.501E-01
 -13.125  0.502E-01  0.502E-01
 -13.115  0.503E-01  0.503E-01
 -13.105  0.503E-01  0.503E-01
 -13.095  0.503E-01  0.503E-01
 -13.085  0.503E-01  0.503E-01
 -13.075  0.502E-01  0.502E-01
 -13.065  0.501E-01  0.501E-01
 -13.055  0.499E-01  0.499E-01
 -13.045  0.497E-01  0.497E-01
 -13.035  0.494E-01  0.494E-01
 -13.025  0.491E-01  0.491E-01
 -13.015  0.487E-01  0.487E-01
 -13.005  0.483E-01  0.483E-01
 -12.995  0.478E-01  0.478E-01
 -12.985  0.472E-01  0.472E-01
 -12.975  0.466E-01  0.466E-01
 -12.965  0.460E-01  0.460E-01
 -12.955  0.453E-01  0.453E-01
 -12.945  0.445E-01  0.445E-01
 -12.935  0.438E-01  0.438E-01
 -12.925  0.430E-01  0.430E-01
 -12.915  0.422E-01  0.422E-01
 -12.905  0.415E-01  0.415E-01
 -12.895  0.408E-01  0.408E-01
 -12.885  0.401E-01  0.401E-01
 -12.875  0.396E-01  0.396E-01
 -12.865  0.392E-01  0.392E-01
 -12.855  0.389E-01  0.389E-01
 -12.845  0.388E-01  0.388E-01
 -12.835  0.389E-01  0.389E-01
 -12.825  0.391E-01  0.391E-01
 -12.815  0.396E-01  0.396E-01
 -12.805  0.402E-01  0.402E-01
 -12.795  0.411E-01  0.411E-01
 -12.785  0.420E-01  0.420E-01
 -12.775  0.431E-01  0.431E-01
 -12.765  0.443E-01  0.443E-01
 -12.755  0.455E-01  0.455E-01
 -12.745  0.466E-01  0.466E-01
 -12.735  0.477E-01  0.477E-01
 -12.725  0.487E-01  0.487E-01
 -12.715  0.495E-01  0.495E-01
 -12.705  0.501E-01  0.501E-01
 -12.695  0.504E-01  0.504E-01
 -12.685  0.505E-01  0.505E-01
 -12.675  0.502E-01  0.502E-01
 -12.665  0.497E-01  0.497E-01
 -12.655  0.488E-01  0.488E-01
 -12.645  0.477E-01  0.477E-01
 -12.635  0.463E-01  0.463E-01
 -12.625  0.448E-01  0.448E-01
 -12.615  0.430E-01  0.430E-01
 -12.605  0.412E-01  0.412E-01
 -12.595  0.393E-01  0.393E-01
 -12.585  0.375E-01  0.375E-01
 -12.575  0.357E-01  0.357E-01
 -12.565  0.341E-01  0.341E-01
 -12.555  0.327E-01  0.327E-01
 -12.545  0.315E-01  0.315E-01
 -12.535  0.306E-01  0.306E-01
 -12.525  0.300E-01  0.300E-01
 -12.515  0.298E-01  0.298E-01
 -12.505  0.299E-01  0.299E-01
 -12.495  0.304E-01  0.304E-01
 -12.485  0.312E-01  0.312E-01
 -12.475  0.323E-01  0.323E-01
 -12.465  0.336E-01  0.336E-01
 -12.455  0.351E-01  0.351E-01
 -12.445  0.368E-01  0.368E-01
 -12.435  0.386E-01  0.386E-01
 -12.425  0.404E-01  0.404E-01
 -12.415  0.421E-01  0.421E-01
 -12.405  0.437E-01  0.437E-01
 -12.395  0.452E-01  0.452E-01
 -12.385  0.464E-01  0.464E-01
 -12.375  0.473E-01  0.473E-01
 -12.365  0.479E-01  0.479E-01
 -12.355  0.481E-01  0.481E-01
 -12.345  0.480E-01  0.480E-01
 -12.335  0.476E-01  0.476E-01
 -12.325  0.468E-01  0.468E-01
 -12.315  0.458E-01  0.458E-01
 -12.305  0.445E-01  0.445E-01
 -12.295  0.430E-01  0.430E-01
 -12.285  0.413E-01  0.413E-01
 -12.275  0.396E-01  0.396E-01
 -12.265  0.378E-01  0.378E-01
 -12.255  0.361E-01  0.361E-01
 -12.245  0.345E-01  0.345E-01
 -12.235  0.330E-01  0.330E-01
 -12.225  0.318E-01  0.318E-01
 -12.215  0.308E-01  0.308E-01
 -12.205  0.302E-01  0.302E-01
 -12.195  0.298E-01  0.298E-01
 -12.185  0.297E-01  0.297E-01
 -12.175  0.299E-01  0.299E-01
 -12.165  0.305E-01  0.305E-01
 -12.155  0.312E-01  0.312E-01
 -12.145  0.322E-01  0.322E-01
 -12.135  0.334E-01  0.334E-01
 -12.125  0.347E-01  0.347E-01
 -12.115  0.360E-01  0.360E-01
 -12.105  0.373E-01  0.373E-01
 -12.095  0.386E-01  0.386E-01
 -12.085  0.397E-01  0.397E-01
 -12.075  0.406E-01  0.406E-01
 -12.065  0.414E-01  0.414E-01
 -12.055  0.419E-01  0.419E-01
 -12.045  0.421E-01  0.421E-01
 -12.035  0.420E-01  0.420E-01
 -12.025  0.417E-01  0.417E-01
 -12.015  0.412E-01  0.412E-01
 -12.005  0.404E-01  0.404E-01
 -11.995  0.395E-01  0.395E-01
 -11.985  0.385E-01  0.385E-01
 -11.975  0.373E-01  0.373E-01
 -11.965  0.362E-01  0.362E-01
 -11.955  0.351E-01  0.351E-01
 -11.945  0.341E-01  0.341E-01
 -11.935  0.333E-01  0.333E-01
 -11.925  0.326E-01  0.326E-01
 -11.915  0.321E-01  0.321E-01
 -11.905  0.318E-01  0.318E-01
 -11.895  0.318E-01  0.318E-01
 -11.885  0.320E-01  0.320E-01
 -11.875  0.324E-01  0.324E-01
 -11.865  0.330E-01  0.330E-01
 -11.855  0.339E-01  0.339E-01
 -11.845  0.348E-01  0.348E-01
 -11.835  0.359E-01  0.359E-01
 -11.825  0.370E-01  0.370E-01
 -11.815  0.381E-01  0.381E-01
 -11.805  0.392E-01  0.392E-01
 -11.795  0.403E-01  0.403E-01
 -11.785  0.411E-01  0.411E-01
 -11.775  0.418E-01  0.418E-01
 -11.765  0.424E-01  0.424E-01
 -11.755  0.426E-01  0.426E-01
 -11.745  0.426E-01  0.426E-01
 -11.735  0.423E-01  0.423E-01
 -11.725  0.418E-01  0.418E-01
 -11.715  0.410E-01  0.410E-01
 -11.705  0.399E-01  0.399E-01
 -11.695  0.386E-01  0.386E-01
 -11.685  0.372E-01  0.372E-01
 -11.675  0.356E-01  0.356E-01
 -11.665  0.340E-01  0.340E-01
 -11.655  0.323E-01  0.323E-01
 -11.645  0.307E-01  0.307E-01
 -11.635  0.292E-01  0.292E-01
 -11.625  0.278E-01  0.278E-01
 -11.615  0.266E-01  0.266E-01
 -11.605  0.257E-01  0.257E-01
 -11.595  0.251E-01  0.251E-01
 -11.585  0.247E-01  0.247E-01
 -11.575  0.247E-01  0.247E-01
 -11.565  0.251E-01  0.251E-01
 -11.555  0.257E-01  0.257E-01
 -11.545  0.267E-01  0.267E-01
 -11.535  0.280E-01  0.280E-01
 -11.525  0.295E-01  0.295E-01
 -11.515  0.312E-01  0.312E-01
 -11.505  0.330E-01  0.330E-01
 -11.495  0.350E-01  0.350E-01
 -11.485  0.369E-01  0.369E-01
 -11.475  0.388E-01  0.388E-01
 -11.465  0.407E-01  0.407E-01
 -11.455  0.423E-01  0.423E-01
 -11.445  0.437E-01  0.437E-01
 -11.435  0.449E-01  0.449E-01
 -11.425  0.457E-01  0.457E-01
 -11.415  0.461E-01  0.461E-01
 -11.405  0.462E-01  0.462E-01
 -11.395  0.459E-01  0.459E-01
 -11.385  0.453E-01  0.453E-01
 -11.375  0.443E-01  0.443E-01
 -11.365  0.430E-01  0.430E-01
 -11.355  0.414E-01  0.414E-01
 -11.345  0.396E-01  0.396E-01
 -11.335  0.377E-01  0.377E-01
 -11.325  0.356E-01  0.356E-01
 -11.315  0.335E-01  0.335E-01
 -11.305  0.315E-01  0.315E-01
 -11.295  0.296E-01  0.296E-01
 -11.285  0.278E-01  0.278E-01
 -11.275  0.263E-01  0.263E-01
 -11.265  0.250E-01  0.250E-01
 -11.255  0.240E-01  0.240E-01
 -11.245  0.233E-01  0.233E-01
 -11.235  0.229E-01  0.229E-01
 -11.225  0.228E-01  0.228E-01
 -11.215  0.230E-01  0.230E-01
 -11.205  0.235E-01  0.235E-01
 -11.195  0.243E-01  0.243E-01
 -11.185  0.253E-01  0.253E-01
 -11.175  0.265E-01  0.265E-01
 -11.165  0.278E-01  0.278E-01
 -11.155  0.292E-01  0.292E-01
 -11.145  0.307E-01  0.307E-01
 -11.135  0.321E-01  0.321E-01
 -11.125  0.335E-01  0.335E-01
 -11.115  0.348E-01  0.348E-01
 -11.105  0.360E-01  0.360E-01
 -11.095  0.370E-01  0.370E-01
 -11.085  0.378E-01  0.378E-01
 -11.075  0.384E-01  0.384E-01
 -11.065  0.388E-01  0.388E-01
 -11.055  0.391E-01  0.391E-01
 -11.045  0.391E-01  0.391E-01
 -11.035  0.390E-01  0.390E-01
 -11.025  0.386E-01  0.386E-01
 -11.015  0.382E-01  0.382E-01
 -11.005  0.376E-01  0.376E-01
 -10.995  0.369E-01  0.369E-01
 -10.985  0.361E-01  0.361E-01
 -10.975  0.353E-01  0.353E-01
 -10.965  0.345E-01  0.345E-01
 -10.955  0.336E-01  0.336E-01
 -10.945  0.328E-01  0.328E-01
 -10.935  0.320E-01  0.320E-01
 -10.925  0.313E-01  0.313E-01
 -10.915  0.307E-01  0.307E-01
 -10.905  0.302E-01  0.302E-01
 -10.895  0.298E-01  0.298E-01
 -10.885  0.295E-01  0.295E-01
 -10.875  0.293E-01  0.293E-01
 -10.865  0.293E-01  0.293E-01
 -10.855  0.294E-01  0.294E-01
 -10.845  0.296E-01  0.296E-01
 -10.835  0.298E-01  0.298E-01
 -10.825  0.302E-01  0.302E-01
 -10.815  0.306E-01  0.306E-01
 -10.805  0.310E-01  0.310E-01
 -10.795  0.313E-01  0.313E-01
 -10.785  0.316E-01  0.316E-01
 -10.775  0.319E-01  0.319E-01
 -10.765  0.320E-01  0.320E-01
 -10.755  0.321E-01  0.321E-01
 -10.745  0.320E-01  0.320E-01
 -10.735  0.317E-01  0.317E-01
 -10.725  0.313E-01  0.313E-01
 -10.715  0.308E-01  0.308E-01
 -10.705  0.303E-01  0.303E-01
 -10.695  0.296E-01  0.296E-01
 -10.685  0.289E-01  0.289E-01
 -10.675  0.282E-01  0.282E-01
 -10.665  0.275E-01  0.275E-01
 -10.655  0.269E-01  0.269E-01
 -10.645  0.264E-01  0.264E-01
 -10.635  0.261E-01  0.261E-01
 -10.625  0.259E-01  0.259E-01
 -10.615  0.258E-01  0.258E-01
 -10.605  0.259E-01  0.259E-01
 -10.595  0.263E-01  0.263E-01
 -10.585  0.267E-01  0.267E-01
 -10.575  0.274E-01  0.274E-01
 -10.565  0.282E-01  0.282E-01
 -10.555  0.291E-01  0.291E-01
 -10.545  0.300E-01  0.300E-01
 -10.535  0.310E-01  0.310E-01
 -10.525  0.321E-01  0.321E-01
 -10.515  0.331E-01  0.331E-01
 -10.505  0.341E-01  0.341E-01
 -10.495  0.350E-01  0.350E-01
 -10.485  0.357E-01  0.357E-01
 -10.475  0.363E-01  0.363E-01
 -10.465  0.368E-01  0.368E-01
 -10.455  0.371E-01  0.371E-01
 -10.445  0.371E-01  0.371E-01
 -10.435  0.370E-01  0.370E-01
 -10.425  0.367E-01  0.367E-01
 -10.415  0.362E-01  0.362E-01
 -10.405  0.354E-01  0.354E-01
 -10.395  0.345E-01  0.345E-01
 -10.385  0.335E-01  0.335E-01
 -10.375  0.323E-01  0.323E-01
 -10.365  0.310E-01  0.310E-01
 -10.355  0.297E-01  0.297E-01
 -10.345  0.284E-01  0.284E-01
 -10.335  0.270E-01  0.270E-01
 -10.325  0.257E-01  0.257E-01
 -10.315  0.245E-01  0.245E-01
 -10.305  0.233E-01  0.233E-01
 -10.295  0.224E-01  0.224E-01
 -10.285  0.215E-01  0.215E-01
 -10.275  0.209E-01  0.209E-01
 -10.265  0.204E-01  0.204E-01
 -10.255  0.202E-01  0.202E-01
 -10.245  0.201E-01  0.201E-01
 -10.235  0.203E-01  0.203E-01
 -10.225  0.207E-01  0.207E-01
 -10.215  0.212E-01  0.212E-01
 -10.205  0.219E-01  0.219E-01
 -10.195  0.227E-01  0.227E-01
 -10.185  0.237E-01  0.237E-01
 -10.175  0.248E-01  0.248E-01
 -10.165  0.259E-01  0.259E-01
 -10.155  0.271E-01  0.271E-01
 -10.145  0.283E-01  0.283E-01
 -10.135  0.295E-01  0.295E-01
 -10.125  0.306E-01  0.306E-01
 -10.115  0.316E-01  0.316E-01
 -10.105  0.325E-01  0.325E-01
 -10.095  0.333E-01  0.333E-01
 -10.085  0.340E-01  0.340E-01
 -10.075  0.344E-01  0.344E-01
 -10.065  0.347E-01  0.347E-01
 -10.055  0.348E-01  0.348E-01
 -10.045  0.347E-01  0.347E-01
 -10.035  0.344E-01  0.344E-01
 -10.025  0.340E-01  0.340E-01
 -10.015  0.333E-01  0.333E-01
 -10.005  0.326E-01  0.326E-01
  -9.995  0.317E-01  0.317E-01
  -9.985  0.307E-01  0.307E-01
  -9.975  0.296E-01  0.296E-01
  -9.965  0.285E-01  0.285E-01
  -9.955  0.274E-01  0.274E-01
  -9.945  0.263E-01  0.263E-01
  -9.935  0.253E-01  0.253E-01
  -9.925  0.244E-01  0.244E-01
  -9.915  0.236E-01  0.236E-01
  -9.905  0.229E-01  0.229E-01
  -9.895  0.223E-01  0.223E-01
  -9.885  0.219E-01  0.219E-01
  -9.875  0.216E-01  0.216E-01
  -9.865  0.215E-01  0.215E-01
  -9.855  0.215E-01  0.215E-01
  -9.845  0.217E-01  0.217E-01
  -9.835  0.219E-01  0.219E-01
  -9.825  0.223E-01  0.223E-01
  -9.815  0.227E-01  0.227E-01
  -9.805  0.232E-01  0.232E-01
  -9.795  0.236E-01  0.236E-01
  -9.785  0.241E-01  0.241E-01
  -9.775  0.245E-01  0.245E-01
  -9.765  0.249E-01  0.249E-01
  -9.755  0.252E-01  0.252E-01
  -9.745  0.254E-01  0.254E-01
  -9.735  0.256E-01  0.256E-01
  -9.725  0.257E-01  0.257E-01
  -9.715  0.258E-01  0.258E-01
  -9.705  0.257E-01  0.257E-01
  -9.695  0.257E-01  0.257E-01
  -9.685  0.255E-01  0.255E-01
  -9.675  0.254E-01  0.254E-01
  -9.665  0.253E-01  0.253E-01
  -9.655  0.251E-01  0.251E-01
  -9.645  0.250E-01  0.250E-01
  -9.635  0.249E-01  0.249E-01
  -9.625  0.249E-01  0.249E-01
  -9.615  0.248E-01  0.248E-01
  -9.605  0.248E-01  0.248E-01
  -9.595  0.249E-01  0.249E-01
  -9.585  0.249E-01  0.249E-01
  -9.575  0.250E-01  0.250E-01
  -9.565  0.251E-01  0.251E-01
  -9.555  0.252E-01  0.252E-01
  -9.545  0.254E-01  0.254E-01
  -9.535  0.255E-01  0.255E-01
  -9.525  0.256E-01  0.256E-01
  -9.515  0.257E-01  0.257E-01
  -9.505  0.258E-01  0.258E-01
  -9.495  0.258E-01  0.258E-01
  -9.485  0.258E-01  0.258E-01
  -9.475  0.258E-01  0.258E-01
  -9.465  0.258E-01  0.258E-01
  -9.455  0.256E-01  0.256E-01
  -9.445  0.255E-01  0.255E-01
  -9.435  0.252E-01  0.252E-01
  -9.425  0.250E-01  0.250E-01
  -9.415  0.246E-01  0.246E-01
  -9.405  0.242E-01  0.242E-01
  -9.395  0.238E-01  0.238E-01
  -9.385  0.233E-01  0.233E-01
  -9.375  0.228E-01  0.228E-01
  -9.365  0.222E-01  0.222E-01
  -9.355  0.216E-01  0.216E-01
  -9.345  0.210E-01  0.210E-01
  -9.335  0.205E-01  0.205E-01
  -9.325  0.199E-01  0.199E-01
  -9.315  0.194E-01  0.194E-01
  -9.305  0.190E-01  0.190E-01
  -9.295  0.186E-01  0.186E-01
  -9.285  0.182E-01  0.182E-01
  -9.275  0.180E-01  0.180E-01
  -9.265  0.179E-01  0.179E-01
  -9.255  0.178E-01  0.178E-01
  -9.245  0.179E-01  0.179E-01
  -9.235  0.181E-01  0.181E-01
  -9.225  0.183E-01  0.183E-01
  -9.215  0.186E-01  0.186E-01
  -9.205  0.190E-01  0.190E-01
  -9.195  0.195E-01  0.195E-01
  -9.185  0.200E-01  0.200E-01
  -9.175  0.205E-01  0.205E-01
  -9.165  0.210E-01  0.210E-01
  -9.155  0.216E-01  0.216E-01
  -9.145  0.221E-01  0.221E-01
  -9.135  0.226E-01  0.226E-01
  -9.125  0.230E-01  0.230E-01
  -9.115  0.233E-01  0.233E-01
  -9.105  0.236E-01  0.236E-01
  -9.095  0.238E-01  0.238E-01
  -9.085  0.239E-01  0.239E-01
  -9.075  0.239E-01  0.239E-01
  -9.065  0.237E-01  0.237E-01
  -9.055  0.235E-01  0.235E-01
  -9.045  0.232E-01  0.232E-01
  -9.035  0.228E-01  0.228E-01
  -9.025  0.223E-01  0.223E-01
  -9.015  0.218E-01  0.218E-01
  -9.005  0.212E-01  0.212E-01
  -8.995  0.206E-01  0.206E-01
  -8.985  0.199E-01  0.199E-01
  -8.975  0.193E-01  0.193E-01
  -8.965  0.187E-01  0.187E-01
  -8.955  0.181E-01  0.181E-01
  -8.945  0.175E-01  0.175E-01
  -8.935  0.170E-01  0.170E-01
  -8.925  0.166E-01  0.166E-01
  -8.915  0.162E-01  0.162E-01
  -8.905  0.159E-01  0.159E-01
  -8.895  0.157E-01  0.157E-01
  -8.885  0.155E-01  0.155E-01
  -8.875  0.154E-01  0.154E-01
  -8.865  0.154E-01  0.154E-01
  -8.855  0.154E-01  0.154E-01
  -8.845  0.155E-01  0.155E-01
  -8.835  0.156E-01  0.156E-01
  -8.825  0.156E-01  0.156E-01
  -8.815  0.157E-01  0.157E-01
  -8.805  0.158E-01  0.158E-01
  -8.795  0.158E-01  0.158E-01
  -8.785  0.159E-01  0.159E-01
  -8.775  0.158E-01  0.158E-01
  -8.765  0.158E-01  0.158E-01
  -8.755  0.157E-01  0.157E-01
  -8.745  0.156E-01  0.156E-01
  -8.735  0.154E-01  0.154E-01
  -8.725  0.152E-01  0.152E-01
  -8.715  0.150E-01  0.150E-01
  -8.705  0.149E-01  0.149E-01
  -8.695  0.147E-01  0.147E-01
  -8.685  0.145E-01  0.145E-01
  -8.675  0.143E-01  0.143E-01
  -8.665  0.142E-01  0.142E-01
  -8.655  0.141E-01  0.141E-01
  -8.645  0.141E-01  0.141E-01
  -8.635  0.141E-01  0.141E-01
  -8.625  0.141E-01  0.141E-01
  -8.615  0.142E-01  0.142E-01
  -8.605  0.143E-01  0.143E-01
  -8.595  0.144E-01  0.144E-01
  -8.585  0.146E-01  0.146E-01
  -8.575  0.148E-01  0.148E-01
  -8.565  0.150E-01  0.150E-01
  -8.555  0.152E-01  0.152E-01
  -8.545  0.154E-01  0.154E-01
  -8.535  0.155E-01  0.155E-01
  -8.525  0.156E-01  0.156E-01
  -8.515  0.157E-01  0.157E-01
  -8.505  0.158E-01  0.158E-01
  -8.495  0.158E-01  0.158E-01
  -8.485  0.157E-01  0.157E-01
  -8.475  0.156E-01  0.156E-01
  -8.465  0.154E-01  0.154E-01
  -8.455  0.151E-01  0.151E-01
  -8.445  0.148E-01  0.148E-01
  -8.435  0.144E-01  0.144E-01
  -8.425  0.139E-01  0.139E-01
  -8.415  0.135E-01  0.135E-01
  -8.405  0.129E-01  0.129E-01
  -8.395  0.124E-01  0.124E-01
  -8.385  0.119E-01  0.119E-01
  -8.375  0.113E-01  0.113E-01
  -8.365  0.108E-01  0.108E-01
  -8.355  0.103E-01  0.103E-01
  -8.345  0.982E-02  0.982E-02
  -8.335  0.942E-02  0.942E-02
  -8.325  0.908E-02  0.908E-02
  -8.315  0.880E-02  0.880E-02
  -8.305  0.860E-02  0.860E-02
  -8.295  0.848E-02  0.848E-02
  -8.285  0.844E-02  0.844E-02
  -8.275  0.848E-02  0.848E-02
  -8.265  0.858E-02  0.858E-02
  -8.255  0.876E-02  0.876E-02
  -8.245  0.899E-02  0.899E-02
  -8.235  0.927E-02  0.927E-02
  -8.225  0.959E-02  0.959E-02
  -8.215  0.994E-02  0.994E-02
  -8.205  0.103E-01  0.103E-01
  -8.195  0.107E-01  0.107E-01
  -8.185  0.110E-01  0.110E-01
  -8.175  0.114E-01  0.114E-01
  -8.165  0.117E-01  0.117E-01
  -8.155  0.120E-01  0.120E-01
  -8.145  0.123E-01  0.123E-01
  -8.135  0.125E-01  0.125E-01
  -8.125  0.126E-01  0.126E-01
  -8.115  0.127E-01  0.127E-01
  -8.105  0.127E-01  0.127E-01
  -8.095  0.127E-01  0.127E-01
  -8.085  0.126E-01  0.126E-01
  -8.075  0.125E-01  0.125E-01
  -8.065  0.123E-01  0.123E-01
  -8.055  0.120E-01  0.120E-01
  -8.045  0.117E-01  0.117E-01
  -8.035  0.114E-01  0.114E-01
  -8.025  0.111E-01  0.111E-01
  -8.015  0.107E-01  0.107E-01
  -8.005  0.103E-01  0.103E-01
  -7.995  0.993E-02  0.993E-02
  -7.985  0.955E-02  0.955E-02
  -7.975  0.918E-02  0.918E-02
  -7.965  0.884E-02  0.884E-02
  -7.955  0.852E-02  0.852E-02
  -7.945  0.824E-02  0.824E-02
  -7.935  0.800E-02  0.800E-02
  -7.925  0.779E-02  0.779E-02
  -7.915  0.761E-02  0.761E-02
  -7.905  0.748E-02  0.748E-02
  -7.895  0.738E-02  0.738E-02
  -7.885  0.730E-02  0.730E-02
  -7.875  0.725E-02  0.725E-02
  -7.865  0.722E-02  0.722E-02
  -7.855  0.721E-02  0.721E-02
  -7.845  0.720E-02  0.720E-02
  -7.835  0.720E-02  0.720E-02
  -7.825  0.720E-02  0.720E-02
  -7.815  0.721E-02  0.721E-02
  -7.805  0.722E-02  0.722E-02
  -7.795  0.723E-02  0.723E-02
  -7.785  0.724E-02  0.724E-02
  -7.775  0.726E-02  0.726E-02
  -7.765  0.728E-02  0.728E-02
  -7.755  0.732E-02  0.732E-02
  -7.745  0.737E-02  0.737E-02
  -7.735  0.743E-02  0.743E-02
  -7.725  0.750E-02  0.750E-02
  -7.715  0.759E-02  0.759E-02
  -7.705  0.770E-02  0.770E-02
  -7.695  0.781E-02  0.781E-02
  -7.685  0.793E-02  0.793E-02
  -7.675  0.805E-02  0.805E-02
  -7.665  0.817E-02  0.817E-02
  -7.655  0.828E-02  0.828E-02
  -7.645  0.837E-02  0.837E-02
  -7.635  0.844E-02  0.844E-02
  -7.625  0.849E-02  0.849E-02
  -7.615  0.851E-02  0.851E-02
  -7.605  0.849E-02  0.849E-02
  -7.595  0.844E-02  0.844E-02
  -7.585  0.835E-02  0.835E-02
  -7.575  0.822E-02  0.822E-02
  -7.565  0.806E-02  0.806E-02
  -7.555  0.786E-02  0.786E-02
  -7.545  0.764E-02  0.764E-02
  -7.535  0.739E-02  0.739E-02
  -7.525  0.712E-02  0.712E-02
  -7.515  0.684E-02  0.684E-02
  -7.505  0.656E-02  0.656E-02
  -7.495  0.628E-02  0.628E-02
  -7.485  0.601E-02  0.601E-02
  -7.475  0.575E-02  0.575E-02
  -7.465  0.552E-02  0.552E-02
  -7.455  0.530E-02  0.530E-02
  -7.445  0.512E-02  0.512E-02
  -7.435  0.497E-02  0.497E-02
  -7.425  0.484E-02  0.484E-02
  -7.415  0.475E-02  0.475E-02
  -7.405  0.470E-02  0.470E-02
  -7.395  0.467E-02  0.467E-02
  -7.385  0.466E-02  0.466E-02
  -7.375  0.468E-02  0.468E-02
  -7.365  0.472E-02  0.472E-02
  -7.355  0.478E-02  0.478E-02
  -7.345  0.485E-02  0.485E-02
  -7.335  0.492E-02  0.492E-02
  -7.325  0.500E-02  0.500E-02
  -7.315  0.507E-02  0.507E-02
  -7.305  0.514E-02  0.514E-02
  -7.295  0.521E-02  0.521E-02
  -7.285  0.527E-02  0.527E-02
  -7.275  0.533E-02  0.533E-02
  -7.265  0.537E-02  0.537E-02
  -7.255  0.541E-02  0.541E-02
  -7.245  0.544E-02  0.544E-02
  -7.235  0.546E-02  0.546E-02
  -7.225  0.547E-02  0.547E-02
  -7.215  0.548E-02  0.548E-02
  -7.205  0.548E-02  0.548E-02
  -7.195  0.547E-02  0.547E-02
  -7.185  0.546E-02  0.546E-02
  -7.175  0.543E-02  0.543E-02
  -7.165  0.540E-02  0.540E-02
  -7.155  0.536E-02  0.536E-02
  -7.145  0.530E-02  0.530E-02
  -7.135  0.524E-02  0.524E-02
  -7.125  0.516E-02  0.516E-02
  -7.115  0.506E-02  0.506E-02
  -7.105  0.495E-02  0.495E-02
  -7.095  0.483E-02  0.483E-02
  -7.085  0.469E-02  0.469E-02
  -7.075  0.454E-02  0.454E-02
  -7.065  0.438E-02  0.438E-02
  -7.055  0.422E-02  0.422E-02
  -7.045  0.405E-02  0.405E-02
  -7.035  0.388E-02  0.388E-02
  -7.025  0.371E-02  0.371E-02
  -7.015  0.355E-02  0.355E-02
  -7.005  0.339E-02  0.339E-02
  -6.995  0.325E-02  0.325E-02
  -6.985  0.313E-02  0.313E-02
  -6.975  0.302E-02  0.302E-02
  -6.965  0.293E-02  0.293E-02
  -6.955  0.286E-02  0.286E-02
  -6.945  0.282E-02  0.282E-02
  -6.935  0.280E-02  0.280E-02
  -6.925  0.281E-02  0.281E-02
  -6.915  0.284E-02  0.284E-02
  -6.905  0.288E-02  0.288E-02
  -6.895  0.295E-02  0.295E-02
  -6.885  0.303E-02  0.303E-02
  -6.875  0.311E-02  0.311E-02
  -6.865  0.321E-02  0.321E-02
  -6.855  0.330E-02  0.330E-02
  -6.845  0.339E-02  0.339E-02
  -6.835  0.347E-02  0.347E-02
  -6.825  0.354E-02  0.354E-02
  -6.815  0.359E-02  0.359E-02
  -6.805  0.361E-02  0.361E-02
  -6.795  0.362E-02  0.362E-02
  -6.785  0.360E-02  0.360E-02
  -6.775  0.356E-02  0.356E-02
  -6.765  0.350E-02  0.350E-02
  -6.755  0.342E-02  0.342E-02
  -6.745  0.332E-02  0.332E-02
  -6.735  0.320E-02  0.320E-02
  -6.725  0.307E-02  0.307E-02
  -6.715  0.293E-02  0.293E-02
  -6.705  0.279E-02  0.279E-02
  -6.695  0.265E-02  0.265E-02
  -6.685  0.252E-02  0.252E-02
  -6.675  0.239E-02  0.239E-02
  -6.665  0.227E-02  0.227E-02
  -6.655  0.216E-02  0.216E-02
  -6.645  0.207E-02  0.207E-02
  -6.635  0.199E-02  0.199E-02
  -6.625  0.192E-02  0.192E-02
  -6.615  0.187E-02  0.187E-02
  -6.605  0.183E-02  0.183E-02
  -6.595  0.180E-02  0.180E-02
  -6.585  0.179E-02  0.179E-02
  -6.575  0.178E-02  0.178E-02
  -6.565  0.178E-02  0.178E-02
  -6.555  0.178E-02  0.178E-02
  -6.545  0.179E-02  0.179E-02
  -6.535  0.180E-02  0.180E-02
  -6.525  0.181E-02  0.181E-02
  -6.515  0.183E-02  0.183E-02
  -6.505  0.183E-02  0.183E-02
  -6.495  0.184E-02  0.184E-02
  -6.485  0.184E-02  0.184E-02
  -6.475  0.184E-02  0.184E-02
  -6.465  0.183E-02  0.183E-02
  -6.455  0.181E-02  0.181E-02
  -6.445  0.179E-02  0.179E-02
  -6.435  0.176E-02  0.176E-02
  -6.425  0.172E-02  0.172E-02
  -6.415  0.168E-02  0.168E-02
  -6.405  0.163E-02  0.163E-02
  -6.395  0.158E-02  0.158E-02
  -6.385  0.152E-02  0.152E-02
  -6.375  0.145E-02  0.145E-02
  -6.365  0.139E-02  0.139E-02
  -6.355  0.133E-02  0.133E-02
  -6.345  0.126E-02  0.126E-02
  -6.335  0.120E-02  0.120E-02
  -6.325  0.114E-02  0.114E-02
  -6.315  0.109E-02  0.109E-02
  -6.305  0.104E-02  0.104E-02
  -6.295  0.991E-03  0.991E-03
  -6.285  0.951E-03  0.951E-03
  -6.275  0.916E-03  0.916E-03
  -6.265  0.886E-03  0.886E-03
  -6.255  0.861E-03  0.861E-03
  -6.245  0.838E-03  0.838E-03
  -6.235  0.818E-03  0.818E-03
  -6.225  0.800E-03  0.800E-03
  -6.215  0.783E-03  0.783E-03
  -6.205  0.765E-03  0.765E-03
  -6.195  0.747E-03  0.747E-03
  -6.185  0.727E-03  0.727E-03
  -6.175  0.706E-03  0.706E-03
  -6.165  0.682E-03  0.682E-03
  -6.155  0.657E-03  0.657E-03
  -6.145  0.630E-03  0.630E-03
  -6.135  0.600E-03  0.600E-03
  -6.125  0.570E-03  0.570E-03
  -6.115  0.538E-03  0.538E-03
  -6.105  0.505E-03  0.505E-03
  -6.095  0.472E-03  0.472E-03
  -6.085  0.439E-03  0.439E-03
  -6.075  0.407E-03  0.407E-03
  -6.065  0.375E-03  0.375E-03
  -6.055  0.345E-03  0.345E-03
  -6.045  0.315E-03  0.315E-03
  -6.035  0.288E-03  0.288E-03
  -6.025  0.262E-03  0.262E-03
  -6.015  0.238E-03  0.238E-03
  -6.005  0.215E-03  0.215E-03
  -5.995  0.194E-03  0.194E-03
  -5.985  0.174E-03  0.174E-03
  -5.975  0.156E-03  0.156E-03
  -5.965  0.139E-03  0.139E-03
  -5.955  0.124E-03  0.124E-03
  -5.945  0.110E-03  0.110E-03
  -5.935  0.967E-04  0.967E-04
  -5.925  0.847E-04  0.847E-04
  -5.915  0.738E-04  0.738E-04
  -5.905  0.639E-04  0.639E-04
  -5.895  0.550E-04  0.550E-04
  -5.885  0.469E-04  0.469E-04
  -5.875  0.398E-04  0.398E-04
  -5.865  0.334E-04  0.334E-04
  -5.855  0.279E-04  0.279E-04
  -5.845  0.230E-04  0.230E-04
  -5.835  0.189E-04  0.189E-04
  -5.825  0.153E-04  0.153E-04
  -5.815  0.123E-04  0.123E-04
  -5.805  0.979E-05  0.979E-05
  -5.795  0.772E-05  0.772E-05
  -5.785  0.603E-05  0.603E-05
  -5.775  0.466E-05  0.466E-05
  -5.765  0.357E-05  0.357E-05
  -5.755  0.270E-05  0.270E-05
  -5.745  0.202E-05  0.202E-05
  -5.735  0.150E-05  0.150E-05
  -5.725  0.110E-05  0.110E-05
  -5.715  0.801E-06  0.801E-06
  -5.705  0.576E-06  0.576E-06
  -5.695  0.410E-06  0.410E-06
  -5.685  0.288E-06  0.288E-06
  -5.675  0.201E-06  0.201E-06
  -5.665  0.138E-06  0.138E-06
  -5.655  0.943E-07  0.943E-07
  -5.645  0.636E-07  0.636E-07
  -5.635  0.424E-07  0.424E-07
  -5.625  0.280E-07  0.280E-07
  -5.615  0.183E-07  0.183E-07
  -5.605  0.118E-07  0.118E-07
  -5.595  0.756E-08  0.756E-08
  -5.585  0.478E-08  0.478E-08
  -5.575  0.299E-08  0.299E-08
  -5.565  0.185E-08  0.185E-08
  -5.555  0.113E-08  0.113E-08
  -5.545  0.686E-09  0.686E-09
  -5.535  0.411E-09  0.411E-09
  -5.525  0.244E-09  0.244E-09
  -5.515  0.143E-09  0.143E-09
  -5.505  0.830E-10  0.830E-10
  -5.495  0.476E-10  0.476E-10
  -5.485  0.270E-10  0.270E-10
  -5.475  0.152E-10  0.152E-10
  -5.465  0.845E-11  0.845E-11
  -5.455  0.464E-11  0.464E-11
  -5.445  0.253E-11  0.253E-11
  -5.435  0.136E-11  0.136E-11
  -5.425  0.728E-12  0.728E-12
  -5.415  0.386E-12  0.386E-12
  -5.405  0.203E-12  0.203E-12
  -5.395  0.108E-12  0.108E-12
  -5.385  0.576E-13  0.576E-13
  -5.375  0.319E-13  0.319E-13
  -5.365  0.190E-13  0.190E-13
  -5.355  0.126E-13  0.126E-13
  -5.345  0.956E-14  0.956E-14
  -5.335  0.830E-14  0.830E-14
  -5.325  0.792E-14  0.792E-14
  -5.315  0.767E-14  0.767E-14
  -5.305  0.820E-14  0.820E-14
  -5.295  0.879E-14  0.879E-14
  -5.285  0.942E-14  0.942E-14
  -5.275  0.101E-13  0.101E-13
  -5.265  0.108E-13  0.108E-13
  -5.255  0.115E-13  0.115E-13
  -5.245  0.122E-13  0.122E-13
  -5.235  0.129E-13  0.129E-13
  -5.225  0.136E-13  0.136E-13
  -5.215  0.143E-13  0.143E-13
  -5.205  0.149E-13  0.149E-13
  -5.195  0.155E-13  0.155E-13
  -5.185  0.160E-13  0.160E-13
  -5.175  0.164E-13  0.164E-13
  -5.165  0.167E-13  0.167E-13
  -5.155  0.170E-13  0.170E-13
  -5.145  0.171E-13  0.171E-13
  -5.135  0.172E-13  0.172E-13
  -5.125  0.172E-13  0.172E-13
  -5.115  0.171E-13  0.171E-13
  -5.105  0.170E-13  0.170E-13
  -5.095  0.169E-13  0.169E-13
  -5.085  0.167E-13  0.167E-13
  -5.075  0.164E-13  0.164E-13
  -5.065  0.162E-13  0.162E-13
  -5.055  0.160E-13  0.160E-13
  -5.045  0.159E-13  0.159E-13
  -5.035  0.157E-13  0.157E-13
  -5.025  0.156E-13  0.156E-13
  -5.015  0.156E-13  0.156E-13
  -5.005  0.156E-13  0.156E-13
  -4.995  0.157E-13  0.157E-13
  -4.985  0.159E-13  0.159E-13
  -4.975  0.161E-13  0.161E-13
  -4.965  0.164E-13  0.164E-13
  -4.955  0.167E-13  0.167E-13
  -4.945  0.170E-13  0.170E-13
  -4.935  0.174E-13  0.174E-13
  -4.925  0.178E-13  0.178E-13
  -4.915  0.181E-13  0.181E-13
  -4.905  0.185E-13  0.185E-13
  -4.895  0.188E-13  0.188E-13
  -4.885  0.190E-13  0.190E-13
  -4.875  0.191E-13  0.191E-13
  -4.865  0.192E-13  0.192E-13
  -4.855  0.192E-13  0.192E-13
  -4.845  0.191E-13  0.191E-13
  -4.835  0.188E-13  0.188E-13
  -4.825  0.185E-13  0.185E-13
  -4.815  0.180E-13  0.180E-13
  -4.805  0.175E-13  0.175E-13
  -4.795  0.168E-13  0.168E-13
  -4.785  0.161E-13  0.161E-13
  -4.775  0.153E-13  0.153E-13
  -4.765  0.145E-13  0.145E-13
  -4.755  0.136E-13  0.136E-13
  -4.745  0.128E-13  0.128E-13
  -4.735  0.119E-13  0.119E-13
  -4.725  0.111E-13  0.111E-13
  -4.715  0.104E-13  0.104E-13
  -4.705  0.966E-14  0.966E-14
  -4.695  0.906E-14  0.906E-14
  -4.685  0.854E-14  0.854E-14
  -4.675  0.811E-14  0.811E-14
  -4.665  0.779E-14  0.779E-14
  -4.655  0.756E-14  0.756E-14
  -4.645  0.742E-14  0.742E-14
  -4.635  0.737E-14  0.737E-14
  -4.625  0.740E-14  0.740E-14
  -4.615  0.749E-14  0.749E-14
  -4.605  0.764E-14  0.764E-14
  -4.595  0.783E-14  0.783E-14
  -4.585  0.806E-14  0.806E-14
  -4.575  0.830E-14  0.830E-14
  -4.565  0.855E-14  0.855E-14
  -4.555  0.879E-14  0.879E-14
  -4.545  0.904E-14  0.904E-14
  -4.535  0.927E-14  0.927E-14
  -4.525  0.950E-14  0.950E-14
  -4.515  0.972E-14  0.972E-14
  -4.505  0.994E-14  0.994E-14
  -4.495  0.102E-13  0.102E-13
  -4.485  0.104E-13  0.104E-13
  -4.475  0.107E-13  0.107E-13
  -4.465  0.111E-13  0.111E-13
  -4.455  0.115E-13  0.115E-13
  -4.445  0.120E-13  0.120E-13
  -4.435  0.126E-13  0.126E-13
  -4.425  0.134E-13  0.134E-13
  -4.415  0.143E-13  0.143E-13
  -4.405  0.153E-13  0.153E-13
  -4.395  0.165E-13  0.165E-13
  -4.385  0.177E-13  0.177E-13
  -4.375  0.192E-13  0.192E-13
  -4.365  0.207E-13  0.207E-13
  -4.355  0.222E-13  0.222E-13
  -4.345  0.238E-13  0.238E-13
  -4.335  0.254E-13  0.254E-13
  -4.325  0.270E-13  0.270E-13
  -4.315  0.284E-13  0.284E-13
  -4.305  0.297E-13  0.297E-13
  -4.295  0.308E-13  0.308E-13
  -4.285  0.317E-13  0.317E-13
  -4.275  0.323E-13  0.323E-13
  -4.265  0.326E-13  0.326E-13
  -4.255  0.326E-13  0.326E-13
  -4.245  0.323E-13  0.323E-13
  -4.235  0.318E-13  0.318E-13
  -4.225  0.309E-13  0.309E-13
  -4.215  0.297E-13  0.297E-13
  -4.205  0.284E-13  0.284E-13
  -4.195  0.268E-13  0.268E-13
  -4.185  0.251E-13  0.251E-13
  -4.175  0.233E-13  0.233E-13
  -4.165  0.215E-13  0.215E-13
  -4.155  0.196E-13  0.196E-13
  -4.145  0.178E-13  0.178E-13
  -4.135  0.161E-13  0.161E-13
  -4.125  0.144E-13  0.144E-13
  -4.115  0.129E-13  0.129E-13
  -4.105  0.115E-13  0.115E-13
  -4.095  0.103E-13  0.103E-13
  -4.085  0.920E-14  0.920E-14
  -4.075  0.827E-14  0.827E-14
  -4.065  0.748E-14  0.748E-14
  -4.055  0.682E-14  0.682E-14
  -4.045  0.629E-14  0.629E-14
  -4.035  0.587E-14  0.587E-14
  -4.025  0.555E-14  0.555E-14
  -4.015  0.533E-14  0.533E-14
  -4.005  0.519E-14  0.519E-14
  -3.995  0.512E-14  0.512E-14
  -3.985  0.513E-14  0.513E-14
  -3.975  0.520E-14  0.520E-14
  -3.965  0.534E-14  0.534E-14
  -3.955  0.554E-14  0.554E-14
  -3.945  0.580E-14  0.580E-14
  -3.935  0.612E-14  0.612E-14
  -3.925  0.650E-14  0.650E-14
  -3.915  0.693E-14  0.693E-14
  -3.905  0.740E-14  0.740E-14
  -3.895  0.792E-14  0.792E-14
  -3.885  0.848E-14  0.848E-14
  -3.875  0.906E-14  0.906E-14
  -3.865  0.965E-14  0.965E-14
  -3.855  0.103E-13  0.103E-13
  -3.845  0.108E-13  0.108E-13
  -3.835  0.114E-13  0.114E-13
  -3.825  0.120E-13  0.120E-13
  -3.815  0.125E-13  0.125E-13
  -3.805  0.129E-13  0.129E-13
  -3.795  0.134E-13  0.134E-13
  -3.785  0.137E-13  0.137E-13
  -3.775  0.140E-13  0.140E-13
  -3.765  0.143E-13  0.143E-13
  -3.755  0.144E-13  0.144E-13
  -3.745  0.146E-13  0.146E-13
  -3.735  0.146E-13  0.146E-13
  -3.725  0.146E-13  0.146E-13
  -3.715  0.145E-13  0.145E-13
  -3.705  0.144E-13  0.144E-13
  -3.695  0.142E-13  0.142E-13
  -3.685  0.140E-13  0.140E-13
  -3.675  0.137E-13  0.137E-13
  -3.665  0.133E-13  0.133E-13
  -3.655  0.129E-13  0.129E-13
  -3.645  0.124E-13  0.124E-13
  -3.635  0.119E-13  0.119E-13
  -3.625  0.114E-13  0.114E-13
  -3.615  0.107E-13  0.107E-13
  -3.605  0.101E-13  0.101E-13
  -3.595  0.946E-14  0.946E-14
  -3.585  0.879E-14  0.879E-14
  -3.575  0.813E-14  0.813E-14
  -3.565  0.747E-14  0.747E-14
  -3.555  0.683E-14  0.683E-14
  -3.545  0.622E-14  0.622E-14
  -3.535  0.566E-14  0.566E-14
  -3.525  0.515E-14  0.515E-14
  -3.515  0.469E-14  0.469E-14
  -3.505  0.430E-14  0.430E-14
  -3.495  0.399E-14  0.399E-14
  -3.485  0.375E-14  0.375E-14
  -3.475  0.360E-14  0.360E-14
  -3.465  0.354E-14  0.354E-14
  -3.455  0.357E-14  0.357E-14
  -3.445  0.370E-14  0.370E-14
  -3.435  0.392E-14  0.392E-14
  -3.425  0.424E-14  0.424E-14
  -3.415  0.465E-14  0.465E-14
  -3.405  0.516E-14  0.516E-14
  -3.395  0.575E-14  0.575E-14
  -3.385  0.642E-14  0.642E-14
  -3.375  0.715E-14  0.715E-14
  -3.365  0.794E-14  0.794E-14
  -3.355  0.877E-14  0.877E-14
  -3.345  0.961E-14  0.961E-14
  -3.335  0.104E-13  0.104E-13
  -3.325  0.113E-13  0.113E-13
  -3.315  0.120E-13  0.120E-13
  -3.305  0.127E-13  0.127E-13
  -3.295  0.133E-13  0.133E-13
  -3.285  0.138E-13  0.138E-13
  -3.275  0.141E-13  0.141E-13
  -3.265  0.144E-13  0.144E-13
  -3.255  0.144E-13  0.144E-13
  -3.245  0.143E-13  0.143E-13
  -3.235  0.141E-13  0.141E-13
  -3.225  0.137E-13  0.137E-13
  -3.215  0.132E-13  0.132E-13
  -3.205  0.126E-13  0.126E-13
  -3.195  0.118E-13  0.118E-13
  -3.185  0.110E-13  0.110E-13
  -3.175  0.102E-13  0.102E-13
  -3.165  0.928E-14  0.928E-14
  -3.155  0.837E-14  0.837E-14
  -3.145  0.748E-14  0.748E-14
  -3.135  0.661E-14  0.661E-14
  -3.125  0.578E-14  0.578E-14
  -3.115  0.500E-14  0.500E-14
  -3.105  0.429E-14  0.429E-14
  -3.095  0.364E-14  0.364E-14
  -3.085  0.307E-14  0.307E-14
  -3.075  0.257E-14  0.257E-14
  -3.065  0.214E-14  0.214E-14
  -3.055  0.177E-14  0.177E-14
  -3.045  0.147E-14  0.147E-14
  -3.035  0.123E-14  0.123E-14
  -3.025  0.104E-14  0.104E-14
  -3.015  0.894E-15  0.894E-15
  -3.005  0.791E-15  0.791E-15
  -2.995  0.722E-15  0.722E-15
  -2.985  0.683E-15  0.683E-15
  -2.975  0.667E-15  0.667E-15
  -2.965  0.669E-15  0.669E-15
  -2.955  0.687E-15  0.687E-15
  -2.945  0.714E-15  0.714E-15
  -2.935  0.748E-15  0.748E-15
  -2.925  0.785E-15  0.785E-15
  -2.915  0.823E-15  0.823E-15
  -2.905  0.858E-15  0.858E-15
  -2.895  0.889E-15  0.889E-15
  -2.885  0.913E-15  0.913E-15
  -2.875  0.930E-15  0.930E-15
  -2.865  0.938E-15  0.938E-15
  -2.855  0.937E-15  0.937E-15
  -2.845  0.926E-15  0.926E-15
  -2.835  0.907E-15  0.907E-15
  -2.825  0.879E-15  0.879E-15
  -2.815  0.844E-15  0.844E-15
  -2.805  0.803E-15  0.803E-15
  -2.795  0.757E-15  0.757E-15
  -2.785  0.710E-15  0.710E-15
  -2.775  0.661E-15  0.661E-15
  -2.765  0.615E-15  0.615E-15
  -2.755  0.572E-15  0.572E-15
  -2.745  0.536E-15  0.536E-15
  -2.735  0.507E-15  0.507E-15
  -2.725  0.490E-15  0.490E-15
  -2.715  0.486E-15  0.486E-15
  -2.705  0.496E-15  0.496E-15
  -2.695  0.525E-15  0.525E-15
  -2.685  0.572E-15  0.572E-15
  -2.675  0.641E-15  0.641E-15
  -2.665  0.734E-15  0.734E-15
  -2.655  0.850E-15  0.850E-15
  -2.645  0.993E-15  0.993E-15
  -2.635  0.116E-14  0.116E-14
  -2.625  0.136E-14  0.136E-14
  -2.615  0.157E-14  0.157E-14
  -2.605  0.182E-14  0.182E-14
  -2.595  0.208E-14  0.208E-14
  -2.585  0.236E-14  0.236E-14
  -2.575  0.265E-14  0.265E-14
  -2.565  0.295E-14  0.295E-14
  -2.555  0.325E-14  0.325E-14
  -2.545  0.354E-14  0.354E-14
  -2.535  0.382E-14  0.382E-14
  -2.525  0.407E-14  0.407E-14
  -2.515  0.430E-14  0.430E-14
  -2.505  0.449E-14  0.449E-14
  -2.495  0.465E-14  0.465E-14
  -2.485  0.475E-14  0.475E-14
  -2.475  0.482E-14  0.482E-14
  -2.465  0.483E-14  0.483E-14
  -2.455  0.480E-14  0.480E-14
  -2.445  0.472E-14  0.472E-14
  -2.435  0.460E-14  0.460E-14
  -2.425  0.444E-14  0.444E-14
  -2.415  0.425E-14  0.425E-14
  -2.405  0.404E-14  0.404E-14
  -2.395  0.382E-14  0.382E-14
  -2.385  0.360E-14  0.360E-14
  -2.375  0.337E-14  0.337E-14
  -2.365  0.316E-14  0.316E-14
  -2.355  0.297E-14  0.297E-14
  -2.345  0.281E-14  0.281E-14
  -2.335  0.268E-14  0.268E-14
  -2.325  0.259E-14  0.259E-14
  -2.315  0.254E-14  0.254E-14
  -2.305  0.255E-14  0.255E-14
  -2.295  0.260E-14  0.260E-14
  -2.285  0.271E-14  0.271E-14
  -2.275  0.288E-14  0.288E-14
  -2.265  0.310E-14  0.310E-14
  -2.255  0.337E-14  0.337E-14
  -2.245  0.370E-14  0.370E-14
  -2.235  0.408E-14  0.408E-14
  -2.225  0.450E-14  0.450E-14
  -2.215  0.496E-14  0.496E-14
  -2.205  0.546E-14  0.546E-14
  -2.195  0.597E-14  0.597E-14
  -2.185  0.649E-14  0.649E-14
  -2.175  0.701E-14  0.701E-14
  -2.165  0.751E-14  0.751E-14
  -2.155  0.799E-14  0.799E-14
  -2.145  0.842E-14  0.842E-14
  -2.135  0.880E-14  0.880E-14
  -2.125  0.911E-14  0.911E-14
  -2.115  0.934E-14  0.934E-14
  -2.105  0.948E-14  0.948E-14
  -2.095  0.954E-14  0.954E-14
  -2.085  0.950E-14  0.950E-14
  -2.075  0.936E-14  0.936E-14
  -2.065  0.913E-14  0.913E-14
  -2.055  0.882E-14  0.882E-14
  -2.045  0.844E-14  0.844E-14
  -2.035  0.799E-14  0.799E-14
  -2.025  0.749E-14  0.749E-14
  -2.015  0.695E-14  0.695E-14
  -2.005  0.638E-14  0.638E-14
  -1.995  0.581E-14  0.581E-14
  -1.985  0.524E-14  0.524E-14
  -1.975  0.469E-14  0.469E-14
  -1.965  0.417E-14  0.417E-14
  -1.955  0.368E-14  0.368E-14
  -1.945  0.324E-14  0.324E-14
  -1.935  0.285E-14  0.285E-14
  -1.925  0.251E-14  0.251E-14
  -1.915  0.224E-14  0.224E-14
  -1.905  0.202E-14  0.202E-14
  -1.895  0.187E-14  0.187E-14
  -1.885  0.177E-14  0.177E-14
  -1.875  0.173E-14  0.173E-14
  -1.865  0.174E-14  0.174E-14
  -1.855  0.181E-14  0.181E-14
  -1.845  0.192E-14  0.192E-14
  -1.835  0.208E-14  0.208E-14
  -1.825  0.227E-14  0.227E-14
  -1.815  0.250E-14  0.250E-14
  -1.805  0.275E-14  0.275E-14
  -1.795  0.303E-14  0.303E-14
  -1.785  0.332E-14  0.332E-14
  -1.775  0.363E-14  0.363E-14
  -1.765  0.394E-14  0.394E-14
  -1.755  0.424E-14  0.424E-14
  -1.745  0.454E-14  0.454E-14
  -1.735  0.482E-14  0.482E-14
  -1.725  0.509E-14  0.509E-14
  -1.715  0.532E-14  0.532E-14
  -1.705  0.553E-14  0.553E-14
  -1.695  0.570E-14  0.570E-14
  -1.685  0.583E-14  0.583E-14
  -1.675  0.592E-14  0.592E-14
  -1.665  0.596E-14  0.596E-14
  -1.655  0.597E-14  0.597E-14
  -1.645  0.593E-14  0.593E-14
  -1.635  0.584E-14  0.584E-14
  -1.625  0.572E-14  0.572E-14
  -1.615  0.556E-14  0.556E-14
  -1.605  0.538E-14  0.538E-14
  -1.595  0.517E-14  0.517E-14
  -1.585  0.494E-14  0.494E-14
  -1.575  0.470E-14  0.470E-14
  -1.565  0.446E-14  0.446E-14
  -1.555  0.423E-14  0.423E-14
  -1.545  0.402E-14  0.402E-14
  -1.535  0.383E-14  0.383E-14
  -1.525  0.367E-14  0.367E-14
  -1.515  0.355E-14  0.355E-14
  -1.505  0.348E-14  0.348E-14
  -1.495  0.346E-14  0.346E-14
  -1.485  0.349E-14  0.349E-14
  -1.475  0.359E-14  0.359E-14
  -1.465  0.376E-14  0.376E-14
  -1.455  0.399E-14  0.399E-14
  -1.445  0.429E-14  0.429E-14
  -1.435  0.466E-14  0.466E-14
  -1.425  0.509E-14  0.509E-14
  -1.415  0.558E-14  0.558E-14
  -1.405  0.613E-14  0.613E-14
  -1.395  0.674E-14  0.674E-14
  -1.385  0.739E-14  0.739E-14
  -1.375  0.809E-14  0.809E-14
  -1.365  0.883E-14  0.883E-14
  -1.355  0.960E-14  0.960E-14
  -1.345  0.104E-13  0.104E-13
  -1.335  0.113E-13  0.113E-13
  -1.325  0.121E-13  0.121E-13
  -1.315  0.130E-13  0.130E-13
  -1.305  0.140E-13  0.140E-13
  -1.295  0.150E-13  0.150E-13
  -1.285  0.160E-13  0.160E-13
  -1.275  0.172E-13  0.172E-13
  -1.265  0.184E-13  0.184E-13
  -1.255  0.197E-13  0.197E-13
  -1.245  0.212E-13  0.212E-13
  -1.235  0.227E-13  0.227E-13
  -1.225  0.245E-13  0.245E-13
  -1.215  0.263E-13  0.263E-13
  -1.205  0.283E-13  0.283E-13
  -1.195  0.305E-13  0.305E-13
  -1.185  0.327E-13  0.327E-13
  -1.175  0.351E-13  0.351E-13
  -1.165  0.375E-13  0.375E-13
  -1.155  0.399E-13  0.399E-13
  -1.145  0.423E-13  0.423E-13
  -1.135  0.446E-13  0.446E-13
  -1.125  0.467E-13  0.467E-13
  -1.115  0.487E-13  0.487E-13
  -1.105  0.504E-13  0.504E-13
  -1.095  0.518E-13  0.518E-13
  -1.085  0.528E-13  0.528E-13
  -1.075  0.535E-13  0.535E-13
  -1.065  0.538E-13  0.538E-13
  -1.055  0.537E-13  0.537E-13
  -1.045  0.533E-13  0.533E-13
  -1.035  0.525E-13  0.525E-13
  -1.025  0.514E-13  0.514E-13
  -1.015  0.500E-13  0.500E-13
  -1.005  0.484E-13  0.484E-13
  -0.995  0.467E-13  0.467E-13
  -0.985  0.449E-13  0.449E-13
  -0.975  0.431E-13  0.431E-13
  -0.965  0.413E-13  0.413E-13
  -0.955  0.396E-13  0.396E-13
  -0.945  0.380E-13  0.380E-13
  -0.935  0.366E-13  0.366E-13
  -0.925  0.353E-13  0.353E-13
  -0.915  0.342E-13  0.342E-13
  -0.905  0.333E-13  0.333E-13
  -0.895  0.326E-13  0.326E-13
  -0.885  0.319E-13  0.319E-13
  -0.875  0.315E-13  0.315E-13
  -0.865  0.310E-13  0.310E-13
  -0.855  0.307E-13  0.307E-13
  -0.845  0.304E-13  0.304E-13
  -0.835  0.301E-13  0.301E-13
  -0.825  0.297E-13  0.297E-13
  -0.815  0.294E-13  0.294E-13
  -0.805  0.290E-13  0.290E-13
  -0.795  0.285E-13  0.285E-13
  -0.785  0.280E-13  0.280E-13
  -0.775  0.274E-13  0.274E-13
  -0.765  0.268E-13  0.268E-13
  -0.755  0.261E-13  0.261E-13
  -0.745  0.255E-13  0.255E-13
  -0.735  0.249E-13  0.249E-13
  -0.725  0.243E-13  0.243E-13
  -0.715  0.237E-13  0.237E-13
  -0.705  0.232E-13  0.232E-13
  -0.695  0.228E-13  0.228E-13
  -0.685  0.225E-13  0.225E-13
  -0.675  0.222E-13  0.222E-13
  -0.665  0.220E-13  0.220E-13
  -0.655  0.220E-13  0.220E-13
  -0.645  0.220E-13  0.220E-13
  -0.635  0.221E-13  0.221E-13
  -0.625  0.223E-13  0.223E-13
  -0.615  0.225E-13  0.225E-13
  -0.605  0.228E-13  0.228E-13
  -0.595  0.232E-13  0.232E-13
  -0.585  0.236E-13  0.236E-13
  -0.575  0.241E-13  0.241E-13
  -0.565  0.246E-13  0.246E-13
  -0.555  0.252E-13  0.252E-13
  -0.545  0.257E-13  0.257E-13
  -0.535  0.263E-13  0.263E-13
  -0.525  0.269E-13  0.269E-13
  -0.515  0.275E-13  0.275E-13
  -0.505  0.280E-13  0.280E-13
  -0.495  0.285E-13  0.285E-13
  -0.485  0.290E-13  0.290E-13
  -0.475  0.293E-13  0.293E-13
  -0.465  0.296E-13  0.296E-13
  -0.455  0.297E-13  0.297E-13
  -0.445  0.297E-13  0.297E-13
  -0.435  0.296E-13  0.296E-13
  -0.425  0.294E-13  0.294E-13
  -0.415  0.291E-13  0.291E-13
  -0.405  0.287E-13  0.287E-13
  -0.395  0.283E-13  0.283E-13
  -0.385  0.278E-13  0.278E-13
  -0.375  0.274E-13  0.274E-13
  -0.365  0.271E-13  0.271E-13
  -0.355  0.269E-13  0.269E-13
  -0.345  0.270E-13  0.270E-13
  -0.335  0.273E-13  0.273E-13
  -0.325  0.280E-13  0.280E-13
  -0.315  0.291E-13  0.291E-13
  -0.305  0.307E-13  0.307E-13
  -0.295  0.328E-13  0.328E-13
  -0.285  0.354E-13  0.354E-13
  -0.275  0.386E-13  0.386E-13
  -0.265  0.424E-13  0.424E-13
  -0.255  0.466E-13  0.466E-13
  -0.245  0.513E-13  0.513E-13
  -0.235  0.563E-13  0.563E-13
  -0.225  0.617E-13  0.617E-13
  -0.215  0.672E-13  0.672E-13
  -0.205  0.727E-13  0.727E-13
  -0.195  0.781E-13  0.781E-13
  -0.185  0.832E-13  0.832E-13
  -0.175  0.879E-13  0.879E-13
  -0.165  0.920E-13  0.920E-13
  -0.155  0.954E-13  0.954E-13
  -0.145  0.980E-13  0.980E-13
  -0.135  0.997E-13  0.997E-13
  -0.125  0.101E-12  0.101E-12
  -0.115  0.100E-12  0.100E-12
  -0.105  0.992E-13  0.992E-13
  -0.095  0.972E-13  0.972E-13
  -0.085  0.944E-13  0.944E-13
  -0.075  0.908E-13  0.908E-13
  -0.065  0.867E-13  0.867E-13
  -0.055  0.822E-13  0.822E-13
  -0.045  0.774E-13  0.774E-13
  -0.035  0.724E-13  0.724E-13
  -0.025  0.675E-13  0.675E-13
  -0.015  0.626E-13  0.626E-13
  -0.005  0.581E-13  0.581E-13
   0.005  0.539E-13  0.539E-13
   0.015  0.501E-13  0.501E-13
   0.025  0.468E-13  0.468E-13
   0.035  0.440E-13  0.440E-13
   0.045  0.418E-13  0.418E-13
   0.055  0.401E-13  0.401E-13
   0.065  0.390E-13  0.390E-13
   0.075  0.385E-13  0.385E-13
   0.085  0.385E-13  0.385E-13
   0.095  0.397E-13  0.397E-13
   0.105  0.417E-13  0.417E-13
   0.115  0.454E-13  0.454E-13
   0.125  0.519E-13  0.519E-13
   0.135  0.637E-13  0.637E-13
   0.145  0.861E-13  0.861E-13
   0.155  0.127E-12  0.127E-12
   0.165  0.205E-12  0.205E-12
   0.175  0.350E-12  0.350E-12
   0.185  0.621E-12  0.621E-12
   0.195  0.112E-11  0.112E-11
   0.205  0.205E-11  0.205E-11
   0.215  0.374E-11  0.374E-11
   0.225  0.678E-11  0.678E-11
   0.235  0.122E-10  0.122E-10
   0.245  0.218E-10  0.218E-10
   0.255  0.386E-10  0.386E-10
   0.265  0.677E-10  0.677E-10
   0.275  0.117E-09  0.117E-09
   0.285  0.202E-09  0.202E-09
   0.295  0.342E-09  0.342E-09
   0.305  0.576E-09  0.576E-09
   0.315  0.958E-09  0.958E-09
   0.325  0.158E-08  0.158E-08
   0.335  0.257E-08  0.257E-08
   0.345  0.414E-08  0.414E-08
   0.355  0.661E-08  0.661E-08
   0.365  0.104E-07  0.104E-07
   0.375  0.163E-07  0.163E-07
   0.385  0.253E-07  0.253E-07
   0.395  0.387E-07  0.387E-07
   0.405  0.586E-07  0.586E-07
   0.415  0.879E-07  0.879E-07
   0.425  0.130E-06  0.130E-06
   0.435  0.192E-06  0.192E-06
   0.445  0.279E-06  0.279E-06
   0.455  0.401E-06  0.401E-06
   0.465  0.572E-06  0.572E-06
   0.475  0.806E-06  0.806E-06
   0.485  0.113E-05  0.113E-05
   0.495  0.156E-05  0.156E-05
   0.505  0.213E-05  0.213E-05
   0.515  0.288E-05  0.288E-05
   0.525  0.387E-05  0.387E-05
   0.535  0.513E-05  0.513E-05
   0.545  0.675E-05  0.675E-05
   0.555  0.878E-05  0.878E-05
   0.565  0.113E-04  0.113E-04
   0.575  0.144E-04  0.144E-04
   0.585  0.183E-04  0.183E-04
   0.595  0.228E-04  0.228E-04
   0.605  0.283E-04  0.283E-04
   0.615  0.348E-04  0.348E-04
   0.625  0.423E-04  0.423E-04
   0.635  0.509E-04  0.509E-04
   0.645  0.608E-04  0.608E-04
   0.655  0.719E-04  0.719E-04
   0.665  0.843E-04  0.843E-04
   0.675  0.978E-04  0.978E-04
   0.685  0.113E-03  0.113E-03
   0.695  0.128E-03  0.128E-03
   0.705  0.145E-03  0.145E-03
   0.715  0.163E-03  0.163E-03
   0.725  0.181E-03  0.181E-03
   0.735  0.199E-03  0.199E-03
   0.745  0.218E-03  0.218E-03
   0.755  0.236E-03  0.236E-03
   0.765  0.254E-03  0.254E-03
   0.775  0.272E-03  0.272E-03
   0.785  0.288E-03  0.288E-03
   0.795  0.303E-03  0.303E-03
   0.805  0.317E-03  0.317E-03
   0.815  0.329E-03  0.329E-03
   0.825  0.339E-03  0.339E-03
   0.835  0.347E-03  0.347E-03
   0.845  0.354E-03  0.354E-03
   0.855  0.358E-03  0.358E-03
   0.865  0.361E-03  0.361E-03
   0.875  0.362E-03  0.362E-03
   0.885  0.361E-03  0.361E-03
   0.895  0.359E-03  0.359E-03
   0.905  0.355E-03  0.355E-03
   0.915  0.350E-03  0.350E-03
   0.925  0.344E-03  0.344E-03
   0.935  0.336E-03  0.336E-03
   0.945  0.328E-03  0.328E-03
   0.955  0.320E-03  0.320E-03
   0.965  0.311E-03  0.311E-03
   0.975  0.301E-03  0.301E-03
   0.985  0.292E-03  0.292E-03
   0.995  0.282E-03  0.282E-03
   1.005  0.272E-03  0.272E-03
   1.015  0.262E-03  0.262E-03
   1.025  0.253E-03  0.253E-03
   1.035  0.243E-03  0.243E-03
   1.045  0.234E-03  0.234E-03
   1.055  0.224E-03  0.224E-03
   1.065  0.215E-03  0.215E-03
   1.075  0.207E-03  0.207E-03
   1.085  0.198E-03  0.198E-03
   1.095  0.190E-03  0.190E-03
   1.105  0.182E-03  0.182E-03
   1.115  0.174E-03  0.174E-03
   1.125  0.167E-03  0.167E-03
   1.135  0.160E-03  0.160E-03
   1.145  0.153E-03  0.153E-03
   1.155  0.146E-03  0.146E-03
   1.165  0.140E-03  0.140E-03
   1.175  0.134E-03  0.134E-03
   1.185  0.128E-03  0.128E-03
   1.195  0.122E-03  0.122E-03
   1.205  0.117E-03  0.117E-03
   1.215  0.112E-03  0.112E-03
   1.225  0.106E-03  0.106E-03
   1.235  0.101E-03  0.101E-03
   1.245  0.967E-04  0.967E-04
   1.255  0.920E-04  0.920E-04
   1.265  0.875E-04  0.875E-04
   1.275  0.832E-04  0.832E-04
   1.285  0.791E-04  0.791E-04
   1.295  0.753E-04  0.753E-04
   1.305  0.716E-04  0.716E-04
   1.315  0.681E-04  0.681E-04
   1.325  0.650E-04  0.650E-04
   1.335  0.620E-04  0.620E-04
   1.345  0.593E-04  0.593E-04
   1.355  0.569E-04  0.569E-04
   1.365  0.547E-04  0.547E-04
   1.375  0.528E-04  0.528E-04
   1.385  0.512E-04  0.512E-04
   1.395  0.498E-04  0.498E-04
   1.405  0.487E-04  0.487E-04
   1.415  0.478E-04  0.478E-04
   1.425  0.472E-04  0.472E-04
   1.435  0.469E-04  0.469E-04
   1.445  0.468E-04  0.468E-04
   1.455  0.469E-04  0.469E-04
   1.465  0.473E-04  0.473E-04
   1.475  0.480E-04  0.480E-04
   1.485  0.489E-04  0.489E-04
   1.495  0.499E-04  0.499E-04
   1.505  0.512E-04  0.512E-04
   1.515  0.526E-04  0.526E-04
   1.525  0.542E-04  0.542E-04
   1.535  0.558E-04  0.558E-04
   1.545  0.575E-04  0.575E-04
   1.555  0.591E-04  0.591E-04
   1.565  0.607E-04  0.607E-04
   1.575  0.622E-04  0.622E-04
   1.585  0.636E-04  0.636E-04
   1.595  0.648E-04  0.648E-04
   1.605  0.658E-04  0.658E-04
   1.615  0.666E-04  0.666E-04
   1.625  0.671E-04  0.671E-04
   1.635  0.674E-04  0.674E-04
   1.645  0.674E-04  0.674E-04
   1.655  0.672E-04  0.672E-04
   1.665  0.668E-04  0.668E-04
   1.675  0.661E-04  0.661E-04
   1.685  0.652E-04  0.652E-04
   1.695  0.641E-04  0.641E-04
   1.705  0.629E-04  0.629E-04
   1.715  0.615E-04  0.615E-04
   1.725  0.601E-04  0.601E-04
   1.735  0.586E-04  0.586E-04
   1.745  0.570E-04  0.570E-04
   1.755  0.554E-04  0.554E-04
   1.765  0.537E-04  0.537E-04
   1.775  0.521E-04  0.521E-04
   1.785  0.505E-04  0.505E-04
   1.795  0.489E-04  0.489E-04
   1.805  0.473E-04  0.473E-04
   1.815  0.458E-04  0.458E-04
   1.825  0.443E-04  0.443E-04
   1.835  0.428E-04  0.428E-04
   1.845  0.414E-04  0.414E-04
   1.855  0.401E-04  0.401E-04
   1.865  0.388E-04  0.388E-04
   1.875  0.376E-04  0.376E-04
   1.885  0.364E-04  0.364E-04
   1.895  0.352E-04  0.352E-04
   1.905  0.342E-04  0.342E-04
   1.915  0.332E-04  0.332E-04
   1.925  0.322E-04  0.322E-04
   1.935  0.313E-04  0.313E-04
   1.945  0.305E-04  0.305E-04
   1.955  0.297E-04  0.297E-04
   1.965  0.289E-04  0.289E-04
   1.975  0.282E-04  0.282E-04
   1.985  0.275E-04  0.275E-04
   1.995  0.269E-04  0.269E-04
   2.005  0.263E-04  0.263E-04
   2.015  0.258E-04  0.258E-04
   2.025  0.252E-04  0.252E-04
   2.035  0.248E-04  0.248E-04
   2.045  0.243E-04  0.243E-04
   2.055  0.239E-04  0.239E-04
   2.065  0.235E-04  0.235E-04
   2.075  0.232E-04  0.232E-04
   2.085  0.229E-04  0.229E-04
   2.095  0.226E-04  0.226E-04
   2.105  0.223E-04  0.223E-04
   2.115  0.221E-04  0.221E-04
   2.125  0.219E-04  0.219E-04
   2.135  0.216E-04  0.216E-04
   2.145  0.214E-04  0.214E-04
   2.155  0.212E-04  0.212E-04
   2.165  0.210E-04  0.210E-04
   2.175  0.208E-04  0.208E-04
   2.185  0.205E-04  0.205E-04
   2.195  0.203E-04  0.203E-04
   2.205  0.200E-04  0.200E-04
   2.215  0.197E-04  0.197E-04
   2.225  0.194E-04  0.194E-04
   2.235  0.191E-04  0.191E-04
   2.245  0.188E-04  0.188E-04
   2.255  0.185E-04  0.185E-04
   2.265  0.182E-04  0.182E-04
   2.275  0.180E-04  0.180E-04
   2.285  0.178E-04  0.178E-04
   2.295  0.176E-04  0.176E-04
   2.305  0.176E-04  0.176E-04
   2.315  0.176E-04  0.176E-04
   2.325  0.176E-04  0.176E-04
   2.335  0.178E-04  0.178E-04
   2.345  0.180E-04  0.180E-04
   2.355  0.182E-04  0.182E-04
   2.365  0.186E-04  0.186E-04
   2.375  0.189E-04  0.189E-04
   2.385  0.193E-04  0.193E-04
   2.395  0.197E-04  0.197E-04
   2.405  0.201E-04  0.201E-04
   2.415  0.205E-04  0.205E-04
   2.425  0.209E-04  0.209E-04
   2.435  0.213E-04  0.213E-04
   2.445  0.217E-04  0.217E-04
   2.455  0.219E-04  0.219E-04
   2.465  0.222E-04  0.222E-04
   2.475  0.224E-04  0.224E-04
   2.485  0.225E-04  0.225E-04
   2.495  0.226E-04  0.226E-04
   2.505  0.227E-04  0.227E-04
   2.515  0.227E-04  0.227E-04
   2.525  0.227E-04  0.227E-04
   2.535  0.226E-04  0.226E-04
   2.545  0.225E-04  0.225E-04
   2.555  0.224E-04  0.224E-04
   2.565  0.223E-04  0.223E-04
   2.575  0.222E-04  0.222E-04
   2.585  0.221E-04  0.221E-04
   2.595  0.220E-04  0.220E-04
   2.605  0.220E-04  0.220E-04
   2.615  0.220E-04  0.220E-04
   2.625  0.220E-04  0.220E-04
   2.635  0.221E-04  0.221E-04
   2.645  0.224E-04  0.224E-04
   2.655  0.227E-04  0.227E-04
   2.665  0.231E-04  0.231E-04
   2.675  0.237E-04  0.237E-04
   2.685  0.244E-04  0.244E-04
   2.695  0.252E-04  0.252E-04
   2.705  0.263E-04  0.263E-04
   2.715  0.276E-04  0.276E-04
   2.725  0.292E-04  0.292E-04
   2.735  0.311E-04  0.311E-04
   2.745  0.336E-04  0.336E-04
   2.755  0.368E-04  0.368E-04
   2.765  0.411E-04  0.411E-04
   2.775  0.469E-04  0.469E-04
   2.785  0.549E-04  0.549E-04
   2.795  0.660E-04  0.660E-04
   2.805  0.815E-04  0.815E-04
   2.815  0.103E-03  0.103E-03
   2.825  0.133E-03  0.133E-03
   2.835  0.174E-03  0.174E-03
   2.845  0.231E-03  0.231E-03
   2.855  0.309E-03  0.309E-03
   2.865  0.413E-03  0.413E-03
   2.875  0.552E-03  0.552E-03
   2.885  0.737E-03  0.737E-03
   2.895  0.978E-03  0.978E-03
   2.905  0.129E-02  0.129E-02
   2.915  0.169E-02  0.169E-02
   2.925  0.220E-02  0.220E-02
   2.935  0.284E-02  0.284E-02
   2.945  0.364E-02  0.364E-02
   2.955  0.463E-02  0.463E-02
   2.965  0.583E-02  0.583E-02
   2.975  0.727E-02  0.727E-02
   2.985  0.900E-02  0.900E-02
   2.995  0.110E-01  0.110E-01
   3.005  0.134E-01  0.134E-01
   3.015  0.162E-01  0.162E-01
   3.025  0.194E-01  0.194E-01
   3.035  0.230E-01  0.230E-01
   3.045  0.271E-01  0.271E-01
   3.055  0.316E-01  0.316E-01
   3.065  0.366E-01  0.366E-01
   3.075  0.420E-01  0.420E-01
   3.085  0.479E-01  0.479E-01
   3.095  0.541E-01  0.541E-01
   3.105  0.606E-01  0.606E-01
   3.115  0.675E-01  0.675E-01
   3.125  0.745E-01  0.745E-01
   3.135  0.816E-01  0.816E-01
   3.145  0.888E-01  0.888E-01
   3.155  0.959E-01  0.959E-01
   3.165  0.103E+00  0.103E+00
   3.175  0.110E+00  0.110E+00
   3.185  0.116E+00  0.116E+00
   3.195  0.122E+00  0.122E+00
   3.205  0.127E+00  0.127E+00
   3.215  0.132E+00  0.132E+00
   3.225  0.137E+00  0.137E+00
   3.235  0.141E+00  0.141E+00
   3.245  0.144E+00  0.144E+00
   3.255  0.147E+00  0.147E+00
   3.265  0.149E+00  0.149E+00
   3.275  0.151E+00  0.151E+00
   3.285  0.152E+00  0.152E+00
   3.295  0.154E+00  0.154E+00
   3.305  0.155E+00  0.155E+00
   3.315  0.156E+00  0.156E+00
   3.325  0.157E+00  0.157E+00
   3.335  0.158E+00  0.158E+00
   3.345  0.159E+00  0.159E+00
   3.355  0.160E+00  0.160E+00
   3.365  0.162E+00  0.162E+00
   3.375  0.163E+00  0.163E+00
   3.385  0.165E+00  0.165E+00
   3.395  0.167E+00  0.167E+00
   3.405  0.168E+00  0.168E+00
   3.415  0.170E+00  0.170E+00
   3.425  0.172E+00  0.172E+00
   3.435  0.174E+00  0.174E+00
   3.445  0.175E+00  0.175E+00
   3.455  0.176E+00  0.176E+00
   3.465  0.177E+00  0.177E+00
   3.475  0.177E+00  0.177E+00
   3.485  0.177E+00  0.177E+00
   3.495  0.176E+00  0.176E+00
   3.505  0.175E+00  0.175E+00
   3.515  0.173E+00  0.173E+00
   3.525  0.171E+00  0.171E+00
   3.535  0.169E+00  0.169E+00
   3.545  0.166E+00  0.166E+00
   3.555  0.163E+00  0.163E+00
   3.565  0.160E+00  0.160E+00
   3.575  0.157E+00  0.157E+00
   3.585  0.154E+00  0.154E+00
   3.595  0.150E+00  0.150E+00
   3.605  0.147E+00  0.147E+00
   3.615  0.145E+00  0.145E+00
   3.625  0.142E+00  0.142E+00
   3.635  0.140E+00  0.140E+00
   3.645  0.139E+00  0.139E+00
   3.655  0.137E+00  0.137E+00
   3.665  0.137E+00  0.137E+00
   3.675  0.137E+00  0.137E+00
   3.685  0.137E+00  0.137E+00
   3.695  0.138E+00  0.138E+00
   3.705  0.139E+00  0.139E+00
   3.715  0.141E+00  0.141E+00
   3.725  0.143E+00  0.143E+00
   3.735  0.145E+00  0.145E+00
   3.745  0.147E+00  0.147E+00
   3.755  0.149E+00  0.149E+00
   3.765  0.152E+00  0.152E+00
   3.775  0.154E+00  0.154E+00
   3.785  0.155E+00  0.155E+00
   3.795  0.156E+00  0.156E+00
   3.805  0.157E+00  0.157E+00
   3.815  0.158E+00  0.158E+00
   3.825  0.158E+00  0.158E+00
   3.835  0.157E+00  0.157E+00
   3.845  0.156E+00  0.156E+00
   3.855  0.154E+00  0.154E+00
   3.865  0.152E+00  0.152E+00
   3.875  0.149E+00  0.149E+00
   3.885  0.146E+00  0.146E+00
   3.895  0.142E+00  0.142E+00
   3.905  0.138E+00  0.138E+00
   3.915  0.134E+00  0.134E+00
   3.925  0.129E+00  0.129E+00
   3.935  0.125E+00  0.125E+00
   3.945  0.120E+00  0.120E+00
   3.955  0.115E+00  0.115E+00
   3.965  0.111E+00  0.111E+00
   3.975  0.106E+00  0.106E+00
   3.985  0.101E+00  0.101E+00
   3.995  0.966E-01  0.966E-01
   4.005  0.922E-01  0.922E-01
   4.015  0.880E-01  0.880E-01
   4.025  0.840E-01  0.840E-01
   4.035  0.803E-01  0.803E-01
   4.045  0.768E-01  0.768E-01
   4.055  0.735E-01  0.735E-01
   4.065  0.706E-01  0.706E-01
   4.075  0.681E-01  0.681E-01
   4.085  0.659E-01  0.659E-01
   4.095  0.641E-01  0.641E-01
   4.105  0.627E-01  0.627E-01
   4.115  0.618E-01  0.618E-01
   4.125  0.613E-01  0.613E-01
   4.135  0.613E-01  0.613E-01
   4.145  0.618E-01  0.618E-01
   4.155  0.627E-01  0.627E-01
   4.165  0.641E-01  0.641E-01
   4.175  0.659E-01  0.659E-01
   4.185  0.681E-01  0.681E-01
   4.195  0.706E-01  0.706E-01
   4.205  0.734E-01  0.734E-01
   4.215  0.765E-01  0.765E-01
   4.225  0.797E-01  0.797E-01
   4.235  0.829E-01  0.829E-01
   4.245  0.862E-01  0.862E-01
   4.255  0.893E-01  0.893E-01
   4.265  0.922E-01  0.922E-01
   4.275  0.949E-01  0.949E-01
   4.285  0.972E-01  0.972E-01
   4.295  0.991E-01  0.991E-01
   4.305  0.101E+00  0.101E+00
   4.315  0.102E+00  0.102E+00
   4.325  0.102E+00  0.102E+00
   4.335  0.102E+00  0.102E+00
   4.345  0.102E+00  0.102E+00
   4.355  0.101E+00  0.101E+00
   4.365  0.994E-01  0.994E-01
   4.375  0.977E-01  0.977E-01
   4.385  0.956E-01  0.956E-01
   4.395  0.933E-01  0.933E-01
   4.405  0.907E-01  0.907E-01
   4.415  0.880E-01  0.880E-01
   4.425  0.851E-01  0.851E-01
   4.435  0.822E-01  0.822E-01
   4.445  0.792E-01  0.792E-01
   4.455  0.762E-01  0.762E-01
   4.465  0.733E-01  0.733E-01
   4.475  0.704E-01  0.704E-01
   4.485  0.676E-01  0.676E-01
   4.495  0.648E-01  0.648E-01
   4.505  0.622E-01  0.622E-01
   4.515  0.597E-01  0.597E-01
   4.525  0.573E-01  0.573E-01
   4.535  0.550E-01  0.550E-01
   4.545  0.528E-01  0.528E-01
   4.555  0.508E-01  0.508E-01
   4.565  0.489E-01  0.489E-01
   4.575  0.470E-01  0.470E-01
   4.585  0.453E-01  0.453E-01
   4.595  0.437E-01  0.437E-01
   4.605  0.422E-01  0.422E-01
   4.615  0.408E-01  0.408E-01
   4.625  0.396E-01  0.396E-01
   4.635  0.384E-01  0.384E-01
   4.645  0.374E-01  0.374E-01
   4.655  0.365E-01  0.365E-01
   4.665  0.358E-01  0.358E-01
   4.675  0.353E-01  0.353E-01
   4.685  0.350E-01  0.350E-01
   4.695  0.349E-01  0.349E-01
   4.705  0.351E-01  0.351E-01
   4.715  0.356E-01  0.356E-01
   4.725  0.365E-01  0.365E-01
   4.735  0.377E-01  0.377E-01
   4.745  0.392E-01  0.392E-01
   4.755  0.411E-01  0.411E-01
   4.765  0.434E-01  0.434E-01
   4.775  0.461E-01  0.461E-01
   4.785  0.490E-01  0.490E-01
   4.795  0.522E-01  0.522E-01
   4.805  0.556E-01  0.556E-01
   4.815  0.591E-01  0.591E-01
   4.825  0.627E-01  0.627E-01
   4.835  0.663E-01  0.663E-01
   4.845  0.698E-01  0.698E-01
   4.855  0.731E-01  0.731E-01
   4.865  0.761E-01  0.761E-01
   4.875  0.788E-01  0.788E-01
   4.885  0.812E-01  0.812E-01
   4.895  0.830E-01  0.830E-01
   4.905  0.844E-01  0.844E-01
   4.915  0.853E-01  0.853E-01
   4.925  0.858E-01  0.858E-01
   4.935  0.857E-01  0.857E-01
   4.945  0.851E-01  0.851E-01
   4.955  0.841E-01  0.841E-01
   4.965  0.828E-01  0.828E-01
   4.975  0.810E-01  0.810E-01
   4.985  0.790E-01  0.790E-01
   4.995  0.767E-01  0.767E-01
   5.005  0.743E-01  0.743E-01
   5.015  0.716E-01  0.716E-01
   5.025  0.689E-01  0.689E-01
   5.035  0.662E-01  0.662E-01
   5.045  0.634E-01  0.634E-01
   5.055  0.606E-01  0.606E-01
   5.065  0.579E-01  0.579E-01
   5.075  0.553E-01  0.553E-01
   5.085  0.528E-01  0.528E-01
   5.095  0.503E-01  0.503E-01
   5.105  0.480E-01  0.480E-01
   5.115  0.457E-01  0.457E-01
   5.125  0.435E-01  0.435E-01
   5.135  0.415E-01  0.415E-01
   5.145  0.394E-01  0.394E-01
   5.155  0.375E-01  0.375E-01
   5.165  0.356E-01  0.356E-01
   5.175  0.337E-01  0.337E-01
   5.185  0.319E-01  0.319E-01
   5.195  0.300E-01  0.300E-01
   5.205  0.283E-01  0.283E-01
   5.215  0.265E-01  0.265E-01
   5.225  0.248E-01  0.248E-01
   5.235  0.231E-01  0.231E-01
   5.245  0.216E-01  0.216E-01
   5.255  0.201E-01  0.201E-01
   5.265  0.188E-01  0.188E-01
   5.275  0.176E-01  0.176E-01
   5.285  0.166E-01  0.166E-01
   5.295  0.159E-01  0.159E-01
   5.305  0.154E-01  0.154E-01
   5.315  0.152E-01  0.152E-01
   5.325  0.153E-01  0.153E-01
   5.335  0.158E-01  0.158E-01
   5.345  0.166E-01  0.166E-01
   5.355  0.179E-01  0.179E-01
   5.365  0.195E-01  0.195E-01
   5.375  0.216E-01  0.216E-01
   5.385  0.241E-01  0.241E-01
   5.395  0.269E-01  0.269E-01
   5.405  0.301E-01  0.301E-01
   5.415  0.337E-01  0.337E-01
   5.425  0.375E-01  0.375E-01
   5.435  0.415E-01  0.415E-01
   5.445  0.457E-01  0.457E-01
   5.455  0.500E-01  0.500E-01
   5.465  0.542E-01  0.542E-01
   5.475  0.584E-01  0.584E-01
   5.485  0.623E-01  0.623E-01
   5.495  0.661E-01  0.661E-01
   5.505  0.694E-01  0.694E-01
   5.515  0.724E-01  0.724E-01
   5.525  0.749E-01  0.749E-01
   5.535  0.769E-01  0.769E-01
   5.545  0.783E-01  0.783E-01
   5.555  0.792E-01  0.792E-01
   5.565  0.795E-01  0.795E-01
   5.575  0.793E-01  0.793E-01
   5.585  0.785E-01  0.785E-01
   5.595  0.773E-01  0.773E-01
   5.605  0.757E-01  0.757E-01
   5.615  0.737E-01  0.737E-01
   5.625  0.714E-01  0.714E-01
   5.635  0.689E-01  0.689E-01
   5.645  0.663E-01  0.663E-01
   5.655  0.635E-01  0.635E-01
   5.665  0.607E-01  0.607E-01
   5.675  0.580E-01  0.580E-01
   5.685  0.552E-01  0.552E-01
   5.695  0.526E-01  0.526E-01
   5.705  0.501E-01  0.501E-01
   5.715  0.476E-01  0.476E-01
   5.725  0.453E-01  0.453E-01
   5.735  0.431E-01  0.431E-01
   5.745  0.410E-01  0.410E-01
   5.755  0.389E-01  0.389E-01
   5.765  0.369E-01  0.369E-01
   5.775  0.350E-01  0.350E-01
   5.785  0.330E-01  0.330E-01
   5.795  0.310E-01  0.310E-01
   5.805  0.291E-01  0.291E-01
   5.815  0.271E-01  0.271E-01
   5.825  0.251E-01  0.251E-01
   5.835  0.232E-01  0.232E-01
   5.845  0.212E-01  0.212E-01
   5.855  0.193E-01  0.193E-01
   5.865  0.174E-01  0.174E-01
   5.875  0.157E-01  0.157E-01
   5.885  0.140E-01  0.140E-01
   5.895  0.124E-01  0.124E-01
   5.905  0.109E-01  0.109E-01
   5.915  0.966E-02  0.966E-02
   5.925  0.855E-02  0.855E-02
   5.935  0.762E-02  0.762E-02
   5.945  0.690E-02  0.690E-02
   5.955  0.640E-02  0.640E-02
   5.965  0.613E-02  0.613E-02
   5.975  0.611E-02  0.611E-02
   5.985  0.635E-02  0.635E-02
   5.995  0.686E-02  0.686E-02
   6.005  0.766E-02  0.766E-02
   6.015  0.877E-02  0.877E-02
   6.025  0.102E-01  0.102E-01
   6.035  0.119E-01  0.119E-01
   6.045  0.140E-01  0.140E-01
   6.055  0.164E-01  0.164E-01
   6.065  0.192E-01  0.192E-01
   6.075  0.222E-01  0.222E-01
   6.085  0.255E-01  0.255E-01
   6.095  0.291E-01  0.291E-01
   6.105  0.329E-01  0.329E-01
   6.115  0.368E-01  0.368E-01
   6.125  0.408E-01  0.408E-01
   6.135  0.448E-01  0.448E-01
   6.145  0.488E-01  0.488E-01
   6.155  0.526E-01  0.526E-01
   6.165  0.562E-01  0.562E-01
   6.175  0.595E-01  0.595E-01
   6.185  0.625E-01  0.625E-01
   6.195  0.650E-01  0.650E-01
   6.205  0.671E-01  0.671E-01
   6.215  0.686E-01  0.686E-01
   6.225  0.697E-01  0.697E-01
   6.235  0.703E-01  0.703E-01
   6.245  0.703E-01  0.703E-01
   6.255  0.700E-01  0.700E-01
   6.265  0.692E-01  0.692E-01
   6.275  0.681E-01  0.681E-01
   6.285  0.666E-01  0.666E-01
   6.295  0.650E-01  0.650E-01
   6.305  0.631E-01  0.631E-01
   6.315  0.611E-01  0.611E-01
   6.325  0.591E-01  0.591E-01
   6.335  0.569E-01  0.569E-01
   6.345  0.548E-01  0.548E-01
   6.355  0.526E-01  0.526E-01
   6.365  0.505E-01  0.505E-01
   6.375  0.483E-01  0.483E-01
   6.385  0.461E-01  0.461E-01
   6.395  0.440E-01  0.440E-01
   6.405  0.418E-01  0.418E-01
   6.415  0.395E-01  0.395E-01
   6.425  0.372E-01  0.372E-01
   6.435  0.349E-01  0.349E-01
   6.445  0.326E-01  0.326E-01
   6.455  0.303E-01  0.303E-01
   6.465  0.279E-01  0.279E-01
   6.475  0.255E-01  0.255E-01
   6.485  0.232E-01  0.232E-01
   6.495  0.210E-01  0.210E-01
   6.505  0.188E-01  0.188E-01
   6.515  0.167E-01  0.167E-01
   6.525  0.147E-01  0.147E-01
   6.535  0.128E-01  0.128E-01
   6.545  0.111E-01  0.111E-01
   6.555  0.962E-02  0.962E-02
   6.565  0.826E-02  0.826E-02
   6.575  0.707E-02  0.707E-02
   6.585  0.606E-02  0.606E-02
   6.595  0.522E-02  0.522E-02
   6.605  0.456E-02  0.456E-02
   6.615  0.407E-02  0.407E-02
   6.625  0.374E-02  0.374E-02
   6.635  0.358E-02  0.358E-02
   6.645  0.359E-02  0.359E-02
   6.655  0.376E-02  0.376E-02
   6.665  0.411E-02  0.411E-02
   6.675  0.463E-02  0.463E-02
   6.685  0.533E-02  0.533E-02
   6.695  0.622E-02  0.622E-02
   6.705  0.731E-02  0.731E-02
   6.715  0.860E-02  0.860E-02
   6.725  0.101E-01  0.101E-01
   6.735  0.118E-01  0.118E-01
   6.745  0.138E-01  0.138E-01
   6.755  0.160E-01  0.160E-01
   6.765  0.184E-01  0.184E-01
   6.775  0.210E-01  0.210E-01
   6.785  0.238E-01  0.238E-01
   6.795  0.267E-01  0.267E-01
   6.805  0.298E-01  0.298E-01
   6.815  0.330E-01  0.330E-01
   6.825  0.362E-01  0.362E-01
   6.835  0.394E-01  0.394E-01
   6.845  0.426E-01  0.426E-01
   6.855  0.456E-01  0.456E-01
   6.865  0.485E-01  0.485E-01
   6.875  0.511E-01  0.511E-01
   6.885  0.535E-01  0.535E-01
   6.895  0.556E-01  0.556E-01
   6.905  0.574E-01  0.574E-01
   6.915  0.588E-01  0.588E-01
   6.925  0.599E-01  0.599E-01
   6.935  0.606E-01  0.606E-01
   6.945  0.609E-01  0.609E-01
   6.955  0.609E-01  0.609E-01
   6.965  0.605E-01  0.605E-01
   6.975  0.599E-01  0.599E-01
   6.985  0.589E-01  0.589E-01
   6.995  0.577E-01  0.577E-01
   7.005  0.563E-01  0.563E-01
   7.015  0.546E-01  0.546E-01
   7.025  0.528E-01  0.528E-01
   7.035  0.508E-01  0.508E-01
   7.045  0.486E-01  0.486E-01
   7.055  0.463E-01  0.463E-01
   7.065  0.439E-01  0.439E-01
   7.075  0.414E-01  0.414E-01
   7.085  0.389E-01  0.389E-01
   7.095  0.363E-01  0.363E-01
   7.105  0.337E-01  0.337E-01
   7.115  0.310E-01  0.310E-01
   7.125  0.284E-01  0.284E-01
   7.135  0.259E-01  0.259E-01
   7.145  0.234E-01  0.234E-01
   7.155  0.210E-01  0.210E-01
   7.165  0.188E-01  0.188E-01
   7.175  0.166E-01  0.166E-01
   7.185  0.147E-01  0.147E-01
   7.195  0.129E-01  0.129E-01
   7.205  0.112E-01  0.112E-01
   7.215  0.979E-02  0.979E-02
   7.225  0.853E-02  0.853E-02
   7.235  0.745E-02  0.745E-02
   7.245  0.655E-02  0.655E-02
   7.255  0.582E-02  0.582E-02
   7.265  0.524E-02  0.524E-02
   7.275  0.482E-02  0.482E-02
   7.285  0.453E-02  0.453E-02
   7.295  0.438E-02  0.438E-02
   7.305  0.434E-02  0.434E-02
   7.315  0.441E-02  0.441E-02
   7.325  0.460E-02  0.460E-02
   7.335  0.489E-02  0.489E-02
   7.345  0.529E-02  0.529E-02
   7.355  0.580E-02  0.580E-02
   7.365  0.643E-02  0.643E-02
   7.375  0.719E-02  0.719E-02
   7.385  0.808E-02  0.808E-02
   7.395  0.912E-02  0.912E-02
   7.405  0.103E-01  0.103E-01
   7.415  0.117E-01  0.117E-01
   7.425  0.133E-01  0.133E-01
   7.435  0.150E-01  0.150E-01
   7.445  0.169E-01  0.169E-01
   7.455  0.190E-01  0.190E-01
   7.465  0.213E-01  0.213E-01
   7.475  0.237E-01  0.237E-01
   7.485  0.263E-01  0.263E-01
   7.495  0.289E-01  0.289E-01
   7.505  0.316E-01  0.316E-01
   7.515  0.344E-01  0.344E-01
   7.525  0.371E-01  0.371E-01
   7.535  0.398E-01  0.398E-01
   7.545  0.423E-01  0.423E-01
   7.555  0.447E-01  0.447E-01
   7.565  0.469E-01  0.469E-01
   7.575  0.489E-01  0.489E-01
   7.585  0.506E-01  0.506E-01
   7.595  0.519E-01  0.519E-01
   7.605  0.530E-01  0.530E-01
   7.615  0.537E-01  0.537E-01
   7.625  0.541E-01  0.541E-01
   7.635  0.541E-01  0.541E-01
   7.645  0.538E-01  0.538E-01
   7.655  0.532E-01  0.532E-01
   7.665  0.522E-01  0.522E-01
   7.675  0.509E-01  0.509E-01
   7.685  0.493E-01  0.493E-01
   7.695  0.475E-01  0.475E-01
   7.705  0.455E-01  0.455E-01
   7.715  0.432E-01  0.432E-01
   7.725  0.408E-01  0.408E-01
   7.735  0.383E-01  0.383E-01
   7.745  0.357E-01  0.357E-01
   7.755  0.331E-01  0.331E-01
   7.765  0.305E-01  0.305E-01
   7.775  0.278E-01  0.278E-01
   7.785  0.253E-01  0.253E-01
   7.795  0.229E-01  0.229E-01
   7.805  0.206E-01  0.206E-01
   7.815  0.184E-01  0.184E-01
   7.825  0.165E-01  0.165E-01
   7.835  0.147E-01  0.147E-01
   7.845  0.131E-01  0.131E-01
   7.855  0.118E-01  0.118E-01
   7.865  0.106E-01  0.106E-01
   7.875  0.971E-02  0.971E-02
   7.885  0.898E-02  0.898E-02
   7.895  0.844E-02  0.844E-02
   7.905  0.810E-02  0.810E-02
   7.915  0.793E-02  0.793E-02
   7.925  0.795E-02  0.795E-02
   7.935  0.813E-02  0.813E-02
   7.945  0.848E-02  0.848E-02
   7.955  0.901E-02  0.901E-02
   7.965  0.971E-02  0.971E-02
   7.975  0.106E-01  0.106E-01
   7.985  0.116E-01  0.116E-01
   7.995  0.129E-01  0.129E-01
   8.005  0.143E-01  0.143E-01
   8.015  0.159E-01  0.159E-01
   8.025  0.178E-01  0.178E-01
   8.035  0.198E-01  0.198E-01
   8.045  0.220E-01  0.220E-01
   8.055  0.243E-01  0.243E-01
   8.065  0.268E-01  0.268E-01
   8.075  0.293E-01  0.293E-01
   8.085  0.319E-01  0.319E-01
   8.095  0.345E-01  0.345E-01
   8.105  0.371E-01  0.371E-01
   8.115  0.396E-01  0.396E-01
   8.125  0.419E-01  0.419E-01
   8.135  0.440E-01  0.440E-01
   8.145  0.458E-01  0.458E-01
   8.155  0.474E-01  0.474E-01
   8.165  0.485E-01  0.485E-01
   8.175  0.493E-01  0.493E-01
   8.185  0.497E-01  0.497E-01
   8.195  0.496E-01  0.496E-01
   8.205  0.492E-01  0.492E-01
   8.215  0.483E-01  0.483E-01
   8.225  0.471E-01  0.471E-01
   8.235  0.455E-01  0.455E-01
   8.245  0.436E-01  0.436E-01
   8.255  0.415E-01  0.415E-01
   8.265  0.392E-01  0.392E-01
   8.275  0.367E-01  0.367E-01
   8.285  0.341E-01  0.341E-01
   8.295  0.316E-01  0.316E-01
   8.305  0.290E-01  0.290E-01
   8.315  0.266E-01  0.266E-01
   8.325  0.242E-01  0.242E-01
   8.335  0.221E-01  0.221E-01
   8.345  0.201E-01  0.201E-01
   8.355  0.185E-01  0.185E-01
   8.365  0.170E-01  0.170E-01
   8.375  0.159E-01  0.159E-01
   8.385  0.150E-01  0.150E-01
   8.395  0.145E-01  0.145E-01
   8.405  0.142E-01  0.142E-01
   8.415  0.143E-01  0.143E-01
   8.425  0.146E-01  0.146E-01
   8.435  0.152E-01  0.152E-01
   8.445  0.160E-01  0.160E-01
   8.455  0.170E-01  0.170E-01
   8.465  0.182E-01  0.182E-01
   8.475  0.196E-01  0.196E-01
   8.485  0.210E-01  0.210E-01
   8.495  0.226E-01  0.226E-01
   8.505  0.241E-01  0.241E-01
   8.515  0.256E-01  0.256E-01
   8.525  0.270E-01  0.270E-01
   8.535  0.284E-01  0.284E-01
   8.545  0.296E-01  0.296E-01
   8.555  0.306E-01  0.306E-01
   8.565  0.314E-01  0.314E-01
   8.575  0.320E-01  0.320E-01
   8.585  0.323E-01  0.323E-01
   8.595  0.324E-01  0.324E-01
   8.605  0.322E-01  0.322E-01
   8.615  0.319E-01  0.319E-01
   8.625  0.313E-01  0.313E-01
   8.635  0.305E-01  0.305E-01
   8.645  0.296E-01  0.296E-01
   8.655  0.286E-01  0.286E-01
   8.665  0.275E-01  0.275E-01
   8.675  0.264E-01  0.264E-01
   8.685  0.254E-01  0.254E-01
   8.695  0.243E-01  0.243E-01
   8.705  0.234E-01  0.234E-01
   8.715  0.225E-01  0.225E-01
   8.725  0.218E-01  0.218E-01
   8.735  0.211E-01  0.211E-01
   8.745  0.206E-01  0.206E-01
   8.755  0.202E-01  0.202E-01
   8.765  0.198E-01  0.198E-01
   8.775  0.195E-01  0.195E-01
   8.785  0.193E-01  0.193E-01
   8.795  0.191E-01  0.191E-01
   8.805  0.189E-01  0.189E-01
   8.815  0.186E-01  0.186E-01
   8.825  0.183E-01  0.183E-01
   8.835  0.178E-01  0.178E-01
   8.845  0.173E-01  0.173E-01
   8.855  0.167E-01  0.167E-01
   8.865  0.160E-01  0.160E-01
   8.875  0.153E-01  0.153E-01
   8.885  0.144E-01  0.144E-01
   8.895  0.134E-01  0.134E-01
   8.905  0.124E-01  0.124E-01
   8.915  0.114E-01  0.114E-01
   8.925  0.104E-01  0.104E-01
   8.935  0.931E-02  0.931E-02
   8.945  0.829E-02  0.829E-02
   8.955  0.730E-02  0.730E-02
   8.965  0.637E-02  0.637E-02
   8.975  0.550E-02  0.550E-02
   8.985  0.470E-02  0.470E-02
   8.995  0.397E-02  0.397E-02
   9.005  0.332E-02  0.332E-02
   9.015  0.275E-02  0.275E-02
   9.025  0.225E-02  0.225E-02
   9.035  0.183E-02  0.183E-02
   9.045  0.147E-02  0.147E-02
   9.055  0.116E-02  0.116E-02
   9.065  0.914E-03  0.914E-03
   9.075  0.711E-03  0.711E-03
   9.085  0.547E-03  0.547E-03
   9.095  0.416E-03  0.416E-03
   9.105  0.313E-03  0.313E-03
   9.115  0.234E-03  0.234E-03
   9.125  0.172E-03  0.172E-03
   9.135  0.126E-03  0.126E-03
   9.145  0.908E-04  0.908E-04
   9.155  0.649E-04  0.649E-04
   9.165  0.459E-04  0.459E-04
   9.175  0.321E-04  0.321E-04
   9.185  0.222E-04  0.222E-04
   9.195  0.152E-04  0.152E-04
   9.205  0.103E-04  0.103E-04
   9.215  0.692E-05  0.692E-05
   9.225  0.459E-05  0.459E-05
   9.235  0.302E-05  0.302E-05
   9.245  0.196E-05  0.196E-05
   9.255  0.126E-05  0.126E-05
   9.265  0.803E-06  0.803E-06
